File: data/demo_data/cvs_before_aging/test_0p5_mVS_CV_before_aging.txt
time/s	Ewe/V	<I>/mA	cycle number
11994.9	0.000576925	-0.398596	1
12016.9	0.0115783	-0.00725554	1
12040.9	0.0235718	0.0188219	1
12064.9	0.0355238	0.0298456	1
12088.9	0.0475473	0.0365197	1
12112.8	0.0595106	0.0407427	1
12136.8	0.0715276	0.0434552	1
12160.8	0.0834991	0.0454805	1
12184.8	0.0954829	0.0473748	1
12208.7	0.10749	0.0490042	1
12232.7	0.119454	0.0508345	1
12256.7	0.131446	0.0518675	1
12280.7	0.143458	0.0526581	1
12304.7	0.155425	0.053357	1
12328.6	0.167423	0.0542625	1
12352.6	0.179417	0.0549545	1
12376.6	0.191394	0.0552158	1
12400.6	0.203367	0.0560653	1
12424.6	0.215382	0.0565551	1
12448.5	0.227364	0.0567646	1
12472.5	0.239345	0.0571329	1
12496.5	0.251329	0.0572016	1
12520.5	0.263334	0.0577793	1
12544.4	0.275313	0.0579826	1
12568.4	0.287285	0.058706	1
12592.4	0.299279	0.0587749	1
12616.4	0.311261	0.0587768	1
12640.4	0.323255	0.0592628	1
12664.3	0.335253	0.0594971	1
12688.3	0.347223	0.0593432	1
12712.3	0.35922	0.0597383	1
12736.3	0.37122	0.0597135	1
12760.3	0.383198	0.0597685	1
12784.2	0.395174	0.0601814	1
12808.2	0.407154	0.0602278	1
12832.2	0.419186	0.0609758	1
12856.2	0.431151	0.0602832	1
12880.2	0.443161	0.0607695	1
12904.1	0.455132	0.0609599	1
12928.1	0.46712	0.0614229	1
12952.1	0.479103	0.0612087	1
12976.1	0.491099	0.061482	1
13000	0.503084	0.0616997	1
13024	0.515056	0.0616304	1
13048	0.527059	0.0619456	1
13072	0.53907	0.0621985	1
13096	0.551039	0.0622209	1
13119.9	0.563028	0.0625288	1
13143.9	0.575034	0.062056	1
13167.9	0.586985	0.0625505	1
13191.9	0.598974	0.0630577	1
13215.9	0.610958	0.0626937	1
13239.8	0.622949	0.0630666	1
13263.8	0.634954	0.0634397	1
13287.8	0.646947	0.063214	1
13311.8	0.658928	0.0633222	1
13335.7	0.670905	0.0633732	1
13359.7	0.682913	0.0633744	1
13383.7	0.69491	0.0639277	1
13407.7	0.706874	0.06382	1
13431.7	0.718841	0.0639437	1
13455.6	0.730854	0.0643406	1
13479.6	0.74283	0.0643106	1
13503.6	0.754824	0.064574	1
13527.6	0.76681	0.0647074	1
13551.6	0.778803	0.0647923	1
13575.5	0.790791	0.0651082	1
13599.5	0.802796	0.065304	1
13623.5	0.814787	0.0650974	1
13647.5	0.826771	0.0650842	1
13671.4	0.838768	0.0659642	1
13695.4	0.850756	0.0657585	1
13719.4	0.862717	0.0653551	1
13743.4	0.874717	0.0661365	1
13767.4	0.886719	0.0666507	1
13791.3	0.898696	0.0664421	1
13815.3	0.910698	0.0669804	1
13839.3	0.92268	0.0667726	1
13863.3	0.934656	0.0674805	1
13887.3	0.946661	0.0674722	1
13911.2	0.958639	0.0670158	1
13935.2	0.97065	0.0678662	1
13959.2	0.98262	0.0674478	1
13983.2	0.994588	0.0678181	1
14007.1	1.00661	0.0681513	1
14031.1	1.01858	0.0682991	1
14055.1	1.03057	0.0686033	1
14079.1	1.04255	0.0683148	1
14103.1	1.05457	0.0686316	1
14127	1.06653	0.0691893	1
14151	1.07851	0.069288	1
14175	1.09051	0.0697366	1
14199	1.1025	0.069577	1
14223	1.11448	0.0699982	1
14246.9	1.12648	0.0697693	1
14270.9	1.13846	0.070225	1
14294.9	1.15046	0.0703798	1
14318.9	1.16246	0.071024	1
14342.8	1.17443	0.070608	1
14366.8	1.18642	0.0710514	1
14390.8	1.19841	0.0711143	1
14414.8	1.21038	0.0716302	1
14438.8	1.22237	0.0722705	1
14462.7	1.23437	0.0719508	1
14486.7	1.24636	0.0725937	1
14510.7	1.25834	0.0721834	1
14534.7	1.27034	0.0726429	1
14558.7	1.28234	0.0729225	1
14582.6	1.29431	0.0728119	1
14606.6	1.30631	0.0732014	1
14630.6	1.3183	0.0735305	1
14654.6	1.33027	0.0734299	1
14678.6	1.34228	0.0736525	1
14702.5	1.35425	0.0738806	1
14726.5	1.36624	0.0744534	1
14750.5	1.37825	0.0746278	1
14774.5	1.39023	0.0743765	1
14798.4	1.40222	0.0750225	1
14822.4	1.4142	0.0751765	1
14846.4	1.42619	0.0756121	1
14870.4	1.43817	0.0756146	1
14894.4	1.45016	0.0761406	1
14918.3	1.46217	0.0760889	1
14942.3	1.47416	0.076597	1
14966.3	1.48612	0.0766354	1
14990.3	1.49812	0.0772237	1
15014.3	1.51011	0.0773245	1
15038.2	1.52208	0.0769793	1
15062.2	1.53407	0.0774164	1
15086.2	1.54606	0.0779253	1
15110.2	1.55805	0.0780343	1
15134.1	1.57003	0.0783383	1
15158.1	1.58204	0.0783034	1
15182.1	1.59402	0.0792007	1
15206.1	1.606	0.0787664	1
15230.1	1.618	0.0797217	1
15254	1.63	0.0796904	1
15278	1.64196	0.0798345	1
15302	1.65398	0.0801928	1
15326	1.66597	0.0800962	1
15350	1.67794	0.0805398	1
15373.9	1.68994	0.0807178	1
15397.9	1.70193	0.080885	1
15421.9	1.71393	0.0813349	1
15445.9	1.72589	0.0813925	1
15469.8	1.73789	0.0819521	1
15493.8	1.74987	0.082261	1
15517.8	1.76184	0.0820847	1
15541.8	1.77385	0.0823341	1
15565.8	1.78584	0.0827164	1
15589.7	1.79781	0.0833572	1
15613.7	1.80982	0.08344	1
15637.7	1.82181	0.0841329	1
15661.7	1.8338	0.0843228	1
15685.7	1.8458	0.0843414	1
15709.6	1.85776	0.0847438	1
15733.6	1.86975	0.0851323	1
15757.6	1.88173	0.0851243	1
15781.6	1.89372	0.0853895	1
15805.5	1.90572	0.0858335	1
15829.5	1.9177	0.0857275	1
15853.5	1.92968	0.0865108	1
15877.5	1.94169	0.0866477	1
15901.5	1.95366	0.086517	1
15925.4	1.96566	0.0869977	1
15949.4	1.97766	0.086949	1
15973.4	1.98966	0.0874715	1
15997.4	2.00163	0.0877543	1
16021.4	2.01361	0.0883125	1
16045.3	2.0256	0.0882839	1
16069.3	2.03758	0.0887367	1
16093.3	2.04958	0.0892139	1
16117.3	2.06159	0.0892842	1
16141.3	2.07356	0.0898681	1
16165.2	2.08554	0.0902405	1
16189.2	2.09754	0.0904548	1
16213.2	2.10952	0.0909194	1
16237.2	2.1215	0.091101	1
16261.1	2.13351	0.0916116	1
16285.1	2.14548	0.0918782	1
16309.1	2.15746	0.0922187	1
16333.1	2.16946	0.0930176	1
16357.1	2.18147	0.0927158	1
16381	2.19345	0.0931265	1
16405	2.20543	0.0938254	1
16429	2.21743	0.0944032	1
16453	2.22939	0.0953157	1
16477	2.24138	0.09549	1
16500.9	2.25338	0.0957181	1
16524.9	2.26538	0.0964783	1
16548.9	2.27736	0.0970202	1
16572.9	2.28934	0.0972599	1
16596.8	2.30132	0.0978608	1
16620.8	2.31333	0.098342	1
16644.8	2.32531	0.0991496	1
16668.8	2.33731	0.0993115	1
16692.8	2.3493	0.099832	1
16716.7	2.36128	0.100541	1
16740.7	2.3733	0.101303	1
16764.7	2.38529	0.101367	1
16788.7	2.39727	0.102683	1
16812.7	2.40926	0.102615	1
16836.6	2.42123	0.103992	1
16860.6	2.43321	0.104438	1
16884.6	2.4452	0.104983	1
16908.6	2.45718	0.105495	1
16932.5	2.46919	0.105516	1
16956.5	2.48117	0.106452	1
16980.5	2.49317	0.10808	1
17004.5	2.50514	0.108101	1
17028.5	2.51714	0.10945	1
17052.4	2.52913	0.110461	1
17076.4	2.54109	0.111266	1
17100.4	2.55311	0.112454	1
17124.4	2.5651	0.113119	1
17148.4	2.57709	0.114599	1
17172.3	2.58908	0.114534	1
17196.3	2.60105	0.115725	1
17220.3	2.61305	0.117415	1
17244.3	2.62503	0.117566	1
17268.2	2.63703	0.119343	1
17292.2	2.649	0.120114	1
17316.2	2.661	0.121988	1
17340.2	2.67302	0.123073	1
17364.2	2.68499	0.124715	1
17388.1	2.69696	0.12537	1
17404.5	2.69513	-0.0121907	1
17428.5	2.68315	-0.0243109	1
17452.5	2.67117	-0.0295424	1
17476.5	2.65915	-0.0328852	1
17500.4	2.64718	-0.0361156	1
17524.4	2.63518	-0.0381311	1
17548.4	2.6232	-0.0401554	1
17572.4	2.61123	-0.0422853	1
17596.4	2.59921	-0.0433445	1
17620.3	2.58723	-0.0453176	1
17644.3	2.57524	-0.0460333	1
17668.3	2.56327	-0.0468509	1
17692.3	2.55125	-0.0479774	1
17716.3	2.53926	-0.0483057	1
17740.2	2.52727	-0.0494735	1
17764.2	2.51529	-0.0507272	1
17788.2	2.50328	-0.0520261	1
17812.2	2.49132	-0.0526047	1
17836.1	2.47932	-0.0534219	1
17860.1	2.46735	-0.0540908	1
17884.1	2.45534	-0.0549247	1
17908.1	2.44334	-0.0555029	1
17932.1	2.43137	-0.0559376	1
17956	2.41937	-0.0565402	1
17980	2.4074	-0.0564068	1
18004	2.3954	-0.0571362	1
18028	2.3834	-0.0576004	1
18052	2.37144	-0.0575736	1
18075.9	2.35942	-0.0589352	1
18099.9	2.34744	-0.059136	1
18123.9	2.33546	-0.0594848	1
18147.9	2.3235	-0.0599691	1
18171.8	2.31149	-0.0605079	1
18195.8	2.2995	-0.0606489	1
18219.8	2.2875	-0.0604442	1
18243.8	2.27552	-0.0610594	1
18267.8	2.26353	-0.0617082	1
18291.7	2.25155	-0.0619964	1
18315.7	2.23956	-0.0618621	1
18339.7	2.22755	-0.0623559	1
18363.7	2.21559	-0.0624396	1
18387.7	2.20358	-0.0629296	1
18411.6	2.19159	-0.0626851	1
18435.6	2.17962	-0.0629123	1
18459.6	2.16763	-0.0628935	1
18483.6	2.15562	-0.0627261	1
18507.5	2.14365	-0.0633455	1
18531.5	2.13165	-0.0630834	1
18555.5	2.11966	-0.0632389	1
18579.5	2.10767	-0.0638054	1
18603.5	2.0957	-0.0642985	1
18627.4	2.0837	-0.064075	1
18651.4	2.0717	-0.0638901	1
18675.4	2.05973	-0.064426	1
18699.4	2.04773	-0.064594	1
18723.4	2.03574	-0.0647049	1
18747.3	2.02375	-0.0645794	1
18771.3	2.01176	-0.0647396	1
18795.3	1.99978	-0.0647699	1
18819.3	1.98779	-0.0649254	1
18843.2	1.97579	-0.0648166	1
18867.2	1.96382	-0.0652166	1
18891.2	1.95182	-0.0648909	1
18915.2	1.93981	-0.0651243	1
18939.2	1.92784	-0.0653642	1
18963.1	1.91585	-0.0655877	1
18987.1	1.90387	-0.065693	1
19011.1	1.8919	-0.0654783	1
19035.1	1.8799	-0.066058	1
19059.1	1.86791	-0.0655937	1
19083	1.85592	-0.0658485	1
19107	1.84391	-0.0660917	1
19131	1.83193	-0.0661848	1
19155	1.81995	-0.0662275	1
19178.9	1.80796	-0.0662867	1
19202.9	1.796	-0.0663728	1
19226.9	1.784	-0.0664464	1
19250.9	1.77199	-0.0662835	1
19274.9	1.75999	-0.065311	1
19298.8	1.74802	-0.065628	1
19322.8	1.73603	-0.0657265	1
19346.8	1.72403	-0.0658319	1
19370.8	1.71206	-0.0656926	1
19394.8	1.70006	-0.0660366	1
19418.7	1.68806	-0.0653437	1
19442.7	1.67608	-0.0662216	1
19466.7	1.66409	-0.0661593	1
19490.7	1.6521	-0.0660232	1
19514.6	1.64009	-0.0658982	1
19538.6	1.62812	-0.0659949	1
19562.6	1.61611	-0.0666489	1
19586.6	1.60413	-0.0661784	1
19610.6	1.59216	-0.066577	1
19634.5	1.58017	-0.0659903	1
19658.5	1.56817	-0.0663893	1
19682.5	1.55621	-0.0663015	1
19706.5	1.54419	-0.0661033	1
19730.5	1.5322	-0.0660547	1
19754.4	1.52023	-0.066744	1
19778.4	1.50823	-0.0666425	1
19802.4	1.49625	-0.0667523	1
19826.4	1.48426	-0.0665139	1
19850.4	1.47228	-0.0663477	1
19874.3	1.46028	-0.0656771	1
19898.3	1.44829	-0.0656304	1
19922.3	1.43633	-0.0661012	1
19946.3	1.42432	-0.0660274	1
19970.2	1.41235	-0.0656119	1
19994.2	1.40038	-0.0655734	1
20018.2	1.38837	-0.0658011	1
20042.2	1.37638	-0.0654034	1
20066.2	1.36439	-0.0650997	1
20090.1	1.3524	-0.0662159	1
20114.1	1.3404	-0.0656004	1
20138.1	1.32842	-0.0655111	1
20162.1	1.31644	-0.0653568	1
20186.1	1.30443	-0.0653346	1
20210	1.29244	-0.0653044	1
20234	1.28047	-0.0649973	1
20258	1.26849	-0.0649023	1
20282	1.2565	-0.0649187	1
20305.9	1.24452	-0.0651118	1
20329.9	1.2325	-0.0650723	1
20353.9	1.22052	-0.0645584	1
20377.9	1.20852	-0.0643622	1
20401.9	1.19655	-0.0651023	1
20425.8	1.18456	-0.0638885	1
20449.8	1.17257	-0.0638263	1
20473.8	1.16059	-0.0640013	1
20497.8	1.14859	-0.0642788	1
20521.8	1.1366	-0.0639759	1
20545.7	1.12461	-0.0642573	1
20569.7	1.11265	-0.0634446	1
20593.7	1.10065	-0.0639207	1
20617.7	1.08867	-0.0634823	1
20641.6	1.07666	-0.0639828	1
20665.6	1.06468	-0.063578	1
20689.6	1.05268	-0.0631877	1
20713.6	1.0407	-0.0632379	1
20737.6	1.0287	-0.0629793	1
20761.5	1.01672	-0.0630423	1
20785.5	1.00473	-0.0630567	1
20809.5	0.992744	-0.0627216	1
20833.5	0.980758	-0.0627667	1
20857.5	0.968783	-0.0626541	1
20881.4	0.956772	-0.0628583	1
20905.4	0.944794	-0.0630021	1
20929.4	0.932793	-0.0627959	1
20953.4	0.9208	-0.0630113	1
20977.3	0.908801	-0.0628871	1
21001.3	0.896835	-0.0624625	1
21025.3	0.884865	-0.0625802	1
21049.3	0.872867	-0.0624282	1
21073.3	0.86085	-0.0621454	1
21097.2	0.848877	-0.0619697	1
21121.2	0.836888	-0.062048	1
21145.2	0.824886	-0.0617936	1
21169.2	0.812911	-0.061646	1
21193.2	0.800937	-0.0620156	1
21217.1	0.788946	-0.0619651	1
21241.1	0.776957	-0.0621517	1
21265.1	0.764984	-0.0617579	1
21289.1	0.752986	-0.0617468	1
21313	0.74101	-0.0617483	1
21337	0.729033	-0.0617461	1
21361	0.717009	-0.0619009	1
21385	0.705013	-0.0617432	1
21409	0.693042	-0.0615225	1
21432.9	0.681049	-0.062091	1
21456.9	0.669057	-0.0617621	1
21480.9	0.657063	-0.0614834	1
21504.9	0.645067	-0.0612753	1
21528.9	0.633105	-0.0614489	1
21552.8	0.6211	-0.0617898	1
21576.8	0.60911	-0.0614481	1
21600.8	0.597118	-0.0613909	1
21624.8	0.585124	-0.0617547	1
21648.7	0.573154	-0.0617464	1
21672.7	0.561158	-0.0620069	1
21696.7	0.549164	-0.0618574	1
21720.7	0.53719	-0.0616499	1
21744.7	0.525208	-0.0616775	1
21768.6	0.513202	-0.0620301	1
21792.6	0.501225	-0.0619736	1
21816.6	0.489229	-0.062304	1
21840.6	0.477249	-0.0623245	1
21864.6	0.465251	-0.0619377	1
21888.5	0.453284	-0.0623227	1
21912.5	0.441288	-0.0620288	1
21936.5	0.429282	-0.0623787	1
21960.5	0.417288	-0.0624417	1
21984.4	0.405297	-0.062626	1
22008.4	0.393316	-0.0625928	1
22032.4	0.381339	-0.0628413	1
22056.4	0.369342	-0.0629648	1
22080.4	0.357346	-0.063012	1
22104.3	0.345375	-0.0633653	1
22128.3	0.333373	-0.0633375	1
22152.3	0.321374	-0.0639204	1
22176.3	0.309403	-0.0636806	1
22200.3	0.297433	-0.0639803	1
22224.2	0.285434	-0.064615	1
22248.2	0.27344	-0.0644369	1
22272.2	0.261476	-0.0643414	1
22296.2	0.249478	-0.0646468	1
22320.2	0.237482	-0.0651133	1
22344.1	0.225483	-0.0652608	1
22368.1	0.213504	-0.0656508	1
22392.1	0.201508	-0.0657937	1
22416.1	0.189534	-0.0659501	1
22440	0.177541	-0.0664638	1
22464	0.16555	-0.0668865	1
22488	0.15355	-0.0671711	1
22512	0.141586	-0.067399	1
22536	0.129576	-0.0675601	1
22559.9	0.117601	-0.0683633	1
22583.9	0.10564	-0.0687135	1
22607.9	0.0936153	-0.0690154	1
22631.9	0.0816204	-0.0695309	1
22655.9	0.0696589	-0.0697342	1
22679.8	0.0576801	-0.0703309	1
22703.8	0.0456799	-0.0708894	1
22727.8	0.033683	-0.0714202	1
22751.8	0.0216999	-0.0715683	1
22775.7	0.00972557	-0.0726453	1
22794.5	0.00035936	-0.0712859	1
22809	0.00763151	0.0377638	2
22833	0.0196178	0.0449926	2
22857	0.0316151	0.0480016	2
22881	0.0435781	0.049776	2
22904.9	0.0555838	0.0510879	2
22928.9	0.0675751	0.0525384	2
22952.9	0.0795223	0.0530847	2
22976.9	0.0915388	0.0537624	2
23000.8	0.103525	0.0544396	2
23024.8	0.115523	0.0552354	2
23048.8	0.127497	0.0557124	2
23072.8	0.139492	0.0561243	2
23096.8	0.15148	0.0562583	2
23120.7	0.163454	0.0566831	2
23144.7	0.175456	0.0568077	2
23168.7	0.187445	0.0575156	2
23192.7	0.199421	0.0575664	2
23216.7	0.211407	0.0578424	2
23240.6	0.223433	0.0583938	2
23264.6	0.23538	0.0580349	2
23288.6	0.2474	0.0582769	2
23312.6	0.259396	0.0587478	2
23336.5	0.271357	0.0587208	2
23360.5	0.283324	0.0592904	2
23384.5	0.295324	0.0592158	2
23408.5	0.307319	0.059049	2
23432.5	0.319323	0.0593429	2
23456.4	0.331314	0.0594578	2
23480.4	0.343286	0.0598892	2
23504.4	0.355254	0.0594602	2
23528.4	0.367241	0.0596849	2
23552.4	0.379267	0.0601581	2
23576.3	0.391243	0.0602682	2
23600.3	0.40322	0.0602809	2
23624.3	0.415209	0.0603	2
23648.3	0.427198	0.0604907	2
23672.2	0.439185	0.0604209	2
23696.2	0.451182	0.0610265	2
23720.2	0.463181	0.0609357	2
23744.2	0.475159	0.0612408	2
23768.2	0.487141	0.0610058	2
23792.1	0.499127	0.0612694	2
23816.1	0.511109	0.0611446	2
23840.1	0.52311	0.0614926	2
23864.1	0.535092	0.061365	2
23888.1	0.547077	0.061548	2
23912	0.559051	0.0615533	2
23936	0.571059	0.0622047	2
23960	0.583044	0.0619002	2
23984	0.59502	0.062028	2
24007.9	0.60699	0.062079	2
24031.9	0.618976	0.0620511	2
24055.9	0.630974	0.0623112	2
24079.9	0.642972	0.0624708	2
24103.9	0.654974	0.0629285	2
24127.8	0.666931	0.0629032	2
24151.8	0.678935	0.0629176	2
24175.8	0.690933	0.0630758	2
24199.8	0.702911	0.062949	2
24223.8	0.714908	0.0634507	2
24247.7	0.726911	0.0635696	2
24271.7	0.738883	0.0633959	2
24295.7	0.750853	0.0634252	2
24319.7	0.762878	0.0637303	2
24343.7	0.774872	0.0641737	2
24367.6	0.786825	0.0640225	2
24391.6	0.798829	0.0646061	2
24415.6	0.810806	0.0645783	2
24439.6	0.822784	0.064528	2
24463.5	0.834794	0.0648395	2
24487.5	0.846776	0.0649988	2
24511.5	0.858775	0.0649799	2
24535.5	0.870783	0.0652928	2
24559.5	0.882752	0.0654429	2
24583.4	0.894732	0.0655911	2
24607.4	0.906725	0.065813	2
24631.4	0.918709	0.0659891	2
24655.4	0.930715	0.065997	2
24679.4	0.94268	0.0659019	2
24703.3	0.954663	0.0662575	2
24727.3	0.966659	0.0665548	2
24751.3	0.978649	0.0667902	2
24775.3	0.99064	0.0668082	2
24799.2	1.00265	0.0669612	2
24823.2	1.01462	0.0673003	2
24847.2	1.02659	0.0674313	2
24871.2	1.03859	0.0676811	2
24895.2	1.05059	0.0675804	2
24919.1	1.06258	0.0678774	2
24943.1	1.07456	0.068312	2
24967.1	1.08657	0.0679094	2
24991.1	1.09854	0.0685418	2
25015.1	1.11053	0.0684223	2
25039	1.12253	0.0688251	2
25063	1.1345	0.0686491	2
25087	1.14649	0.0690581	2
25111	1.15851	0.0693825	2
25134.9	1.17046	0.069825	2
25158.9	1.18246	0.0701694	2
25182.9	1.19446	0.0698823	2
25206.9	1.20645	0.0704547	2
25230.9	1.21843	0.0706644	2
25254.8	1.2304	0.0709395	2
25278.8	1.24239	0.0708154	2
25302.8	1.25438	0.0715765	2
25326.8	1.26636	0.0714686	2
25350.8	1.27838	0.0720008	2
25374.7	1.29034	0.0718703	2
25398.7	1.30233	0.072123	2
25422.7	1.31432	0.0722616	2
25446.7	1.32632	0.0724697	2
25470.6	1.3383	0.0726019	2
25494.6	1.35031	0.0730916	2
25518.6	1.36229	0.0732674	2
25542.6	1.37428	0.0736415	2
25566.6	1.38625	0.0738086	2
25590.5	1.39823	0.0740882	2
25614.5	1.41023	0.0747479	2
25638.5	1.42223	0.0744228	2
25662.5	1.43422	0.0749481	2
25686.5	1.4462	0.0749506	2
25710.4	1.45819	0.07546	2
25734.4	1.4702	0.0753017	2
25758.4	1.48214	0.0760078	2
25782.4	1.49417	0.0758001	2
25806.3	1.50615	0.075929	2
25830.3	1.51816	0.0762024	2
25854.3	1.53011	0.0763555	2
25878.3	1.54212	0.0767534	2
25902.3	1.55411	0.0770472	2
25926.2	1.56608	0.0775336	2
25950.2	1.57808	0.0779249	2
25974.2	1.59006	0.0778927	2
25998.2	1.60204	0.0784139	2
26022.2	1.61403	0.0785209	2
26046.1	1.62603	0.0788183	2
26070.1	1.63801	0.0787121	2
26094.1	1.65001	0.0794635	2
26118.1	1.662	0.0796307	2
26142.1	1.67398	0.0797328	2
26166	1.68597	0.079998	2
26190	1.69795	0.0801449	2
26214	1.70995	0.0805725	2
26238	1.72192	0.0804506	2
26261.9	1.73391	0.0812801	2
26285.9	1.74591	0.0815549	2
26309.9	1.75791	0.0818306	2
26333.9	1.7699	0.0819536	2
26357.9	1.78189	0.0823646	2
26381.8	1.79387	0.0823752	2
26405.8	1.80587	0.0828247	2
26429.8	1.81784	0.0825738	2
26453.8	1.82983	0.0828185	2
26477.8	1.84181	0.0829696	2
26501.7	1.85381	0.083412	2
26525.7	1.86582	0.0839305	2
26549.7	1.87778	0.0839395	2
26573.7	1.88977	0.0841464	2
26597.6	1.90177	0.0844748	2
26621.6	1.91375	0.0846844	2
26645.6	1.92574	0.084677	2
26669.6	1.93772	0.0855618	2
26693.6	1.94969	0.0854149	2
26717.5	1.96173	0.0858492	2
26741.5	1.97372	0.0864422	2
26765.5	1.98568	0.0862593	2
26789.5	1.99766	0.0865905	2
26813.5	2.00967	0.0867303	2
26837.4	2.02165	0.0869236	2
26861.4	2.03363	0.0873988	2
26885.4	2.04561	0.0876223	2
26909.4	2.05762	0.088061	2
26933.3	2.06959	0.0884014	2
26957.3	2.08159	0.0883235	2
26981.3	2.09357	0.088675	2
27005.3	2.10555	0.0890774	2
27029.3	2.11756	0.0892738	2
27053.2	2.12953	0.0897329	2
27077.2	2.14153	0.0894434	2
27101.2	2.15351	0.0902402	2
27125.2	2.16551	0.0907058	2
27149.2	2.1775	0.0908773	2
27173.1	2.18946	0.0910102	2
27197.1	2.20145	0.0913658	2
27221.1	2.21345	0.0915411	2
27245.1	2.22544	0.0916318	2
27269	2.23741	0.0918728	2
27293	2.24943	0.0927585	2
27317	2.26141	0.0928467	2
27341	2.27341	0.0931004	2
27365	2.2854	0.0938771	2
27388.9	2.2974	0.0936935	2
27412.9	2.30938	0.0945572	2
27436.9	2.32135	0.0941148	2
27460.9	2.33337	0.0947051	2
27484.9	2.34532	0.0953853	2
27508.8	2.35731	0.0956432	2
27532.8	2.36933	0.0964641	2
27556.8	2.38131	0.0964891	2
27580.8	2.39331	0.0970672	2
27604.8	2.40528	0.0969871	2
27628.7	2.41727	0.098507	2
27652.7	2.42926	0.0980477	2
27676.7	2.44126	0.098901	2
27700.7	2.45323	0.0990779	2
27724.6	2.46521	0.100186	2
27748.6	2.47722	0.0999176	2
27772.6	2.48921	0.100416	2
27796.6	2.50119	0.100617	2
27820.6	2.51318	0.101274	2
27844.5	2.52518	0.102542	2
27868.5	2.53716	0.102836	2
27892.5	2.54916	0.103367	2
27916.5	2.56114	0.104275	2
27940.5	2.57314	0.105316	2
27964.4	2.58513	0.105445	2
27988.4	2.59713	0.106528	2
28012.4	2.60908	0.10654	2
28036.4	2.62107	0.108058	2
28060.3	2.63307	0.108139	2
28084.3	2.64505	0.109114	2
28108.3	2.65702	0.109926	2
28132.3	2.66902	0.1117	2
28156.3	2.68104	0.11207	2
28180.2	2.69302	0.112986	2
28196.5	2.6991	-0.00135895	2
28220.5	2.68714	-0.0309583	2
28244.5	2.67514	-0.0369781	2
28268.5	2.66314	-0.0408021	2
28292.4	2.65116	-0.0433424	2
28316.4	2.63915	-0.0455968	2
28340.4	2.62717	-0.0476524	2
28364.4	2.61518	-0.0484143	2
28388.4	2.60319	-0.0493824	2
28412.3	2.59119	-0.0504218	2
28436.3	2.5792	-0.0513932	2
28460.3	2.56722	-0.05264	2
28484.3	2.55523	-0.0529577	2
28508.2	2.54323	-0.0539344	2
28532.2	2.53126	-0.0547527	2
28556.2	2.51928	-0.0544732	2
28580.2	2.50728	-0.0554008	2
28604.2	2.49529	-0.0558119	2
28628.1	2.4833	-0.0563678	2
28652.1	2.47132	-0.0567058	2
28676.1	2.45932	-0.0571932	2
28700.1	2.44734	-0.0575934	2
28724.1	2.43535	-0.0575686	2
28748	2.42335	-0.0581087	2
28772	2.41139	-0.0581828	2
28796	2.39937	-0.0588088	2
28820	2.38739	-0.0590644	2
28843.9	2.37543	-0.0590658	2
28867.9	2.36343	-0.0598199	2
28891.9	2.35144	-0.0595029	2
28915.9	2.33945	-0.0597346	2
28939.9	2.32745	-0.0609209	2
28963.8	2.31546	-0.0606183	2
28987.8	2.30347	-0.0611503	2
29011.8	2.29147	-0.0615162	2
29035.8	2.27951	-0.0620261	2
29059.8	2.2675	-0.0619929	2
29083.7	2.25553	-0.0620741	2
29107.7	2.24354	-0.0619411	2
29131.7	2.23156	-0.0622737	2
29155.7	2.21956	-0.0621589	2
29179.6	2.20758	-0.0624568	2
29203.6	2.1956	-0.0625469	2
29227.6	2.18361	-0.0625941	2
29251.6	2.17161	-0.063133	2
29275.6	2.15964	-0.0629518	2
29299.5	2.14763	-0.0636196	2
29323.5	2.13567	-0.06369	2
29347.5	2.12368	-0.0636045	2
29371.5	2.11167	-0.0637921	2
29395.5	2.0997	-0.0641329	2
29419.4	2.08769	-0.0641808	2
29443.4	2.07572	-0.064393	2
29467.4	2.06372	-0.0645255	2
29491.4	2.05172	-0.0642531	2
29515.4	2.03975	-0.0627042	2
29539.3	2.02774	-0.0635339	2
29563.3	2.01575	-0.0638458	2
29587.3	2.00377	-0.0643291	2
29611.3	1.99177	-0.0642788	2
29635.2	1.9798	-0.0645204	2
29659.2	1.9678	-0.0650097	2
29683.2	1.9558	-0.0650579	2
29707.2	1.94381	-0.0654712	2
29731.2	1.93183	-0.0653797	2
29755.1	1.91984	-0.0654275	2
29779.1	1.90786	-0.0657172	2
29803.1	1.89587	-0.0659361	2
29827.1	1.8839	-0.0658459	2
29851.1	1.8719	-0.0664008	2
29875	1.85991	-0.0656593	2
29899	1.84791	-0.0659188	2
29923	1.83593	-0.0658319	2
29947	1.82394	-0.0660574	2
29970.9	1.81195	-0.0658929	2
29994.9	1.79996	-0.0662017	2
30018.9	1.78799	-0.0661903	2
30042.9	1.776	-0.0658265	2
30066.9	1.764	-0.0662334	2
30090.8	1.752	-0.0659477	2
30114.8	1.74	-0.0662382	2
30138.8	1.72804	-0.0660157	2
30162.8	1.71602	-0.0659517	2
30186.8	1.70406	-0.0666239	2
30210.7	1.69207	-0.0664618	2
30234.7	1.68008	-0.0663133	2
30258.7	1.66811	-0.0661221	2
30282.7	1.6561	-0.0664779	2
30306.6	1.6441	-0.0662661	2
30330.6	1.63214	-0.0659405	2
30354.6	1.62013	-0.0665297	2
30378.6	1.60814	-0.0661274	2
30402.6	1.59617	-0.0664293	2
30426.5	1.58417	-0.0664993	2
30450.5	1.57217	-0.0662437	2
30474.5	1.56018	-0.0666035	2
30498.5	1.54819	-0.0665844	2
30522.5	1.5362	-0.0661645	2
30546.4	1.52422	-0.0666055	2
30570.4	1.51225	-0.0663056	2
30594.4	1.50027	-0.0660582	2
30618.4	1.48826	-0.0660893	2
30642.3	1.47626	-0.0661798	2
30666.3	1.46428	-0.0657555	2
30690.3	1.45232	-0.0657304	2
30714.3	1.44032	-0.0656861	2
30738.3	1.42832	-0.0651545	2
30762.2	1.41634	-0.0652524	2
30786.2	1.40435	-0.0652866	2
30810.2	1.39237	-0.0658765	2
30834.2	1.38037	-0.0653554	2
30858.2	1.36838	-0.0656183	2
30882.1	1.3564	-0.0650305	2
30906.1	1.34441	-0.0655728	2
30930.1	1.33241	-0.0652844	2
30954.1	1.32043	-0.0653001	2
30978	1.30845	-0.0647685	2
31002	1.29646	-0.064847	2
31026	1.28445	-0.0645072	2
31050	1.27248	-0.0646804	2
31074	1.26049	-0.0644065	2
31097.9	1.24851	-0.0644309	2
31121.9	1.2365	-0.0646232	2
31145.9	1.22452	-0.0642809	2
31169.9	1.21251	-0.0643689	2
31193.9	1.20055	-0.0640107	2
31217.8	1.18856	-0.0638217	2
31241.8	1.17658	-0.0639969	2
31265.8	1.16458	-0.0641176	2
31289.8	1.15258	-0.0639091	2
31313.7	1.1406	-0.0637386	2
31337.7	1.12861	-0.0637803	2
31361.7	1.11661	-0.0635525	2
31385.7	1.10463	-0.0641302	2
31409.7	1.09264	-0.0631003	2
31433.6	1.08067	-0.0632425	2
31457.6	1.0687	-0.0632509	2
31481.6	1.05668	-0.0628627	2
31505.6	1.04469	-0.0634048	2
31529.6	1.0327	-0.0629692	2
31553.5	1.02068	-0.063082	2
31577.5	1.00872	-0.0624814	2
31601.5	0.996732	-0.0627271	2
31625.5	0.984744	-0.0625285	2
31649.4	0.972744	-0.0627852	2
31673.4	0.960777	-0.0624389	2
31697.4	0.948769	-0.0623463	2
31721.4	0.936779	-0.0624836	2
31745.4	0.924801	-0.0622769	2
31769.3	0.912816	-0.0623808	2
31793.3	0.900816	-0.0622322	2
31817.3	0.888838	-0.0617655	2
31841.3	0.876856	-0.0623335	2
31865.3	0.864866	-0.0615673	2
31889.2	0.852883	-0.0619161	2
31913.2	0.840879	-0.0616476	2
31937.2	0.828899	-0.0613335	2
31961.2	0.816884	-0.0618454	2
31985.2	0.804917	-0.0621453	2
32009.1	0.792926	-0.0618665	2
32033.1	0.780945	-0.0614101	2
32057.1	0.768981	-0.0616134	2
32081.1	0.756972	-0.061316	2
32105	0.744981	-0.0610458	2
32129	0.733	-0.0613256	2
32153	0.721001	-0.0615021	2
32177	0.708999	-0.0615016	2
32201	0.697042	-0.0610273	2
32224.9	0.685037	-0.0610852	2
32248.9	0.673065	-0.0609217	2
32272.9	0.661067	-0.0609959	2
32296.9	0.649074	-0.0611624	2
32320.9	0.637084	-0.0608669	2
32344.8	0.625105	-0.0607008	2
32368.8	0.613134	-0.0605966	2
32392.8	0.601111	-0.0610087	2
32416.8	0.589128	-0.0609688	2
32440.7	0.577165	-0.0608559	2
32464.7	0.565168	-0.0608028	2
32488.7	0.553192	-0.0614636	2
32512.7	0.541195	-0.0616928	2
32536.7	0.529215	-0.0613729	2
32560.6	0.517212	-0.0612319	2
32584.6	0.505212	-0.0614492	2
32608.6	0.493241	-0.0612176	2
32632.6	0.481258	-0.0615616	2
32656.6	0.469277	-0.0612297	2
32680.5	0.457292	-0.0613641	2
32704.5	0.445298	-0.0618804	2
32728.5	0.433287	-0.0615419	2
32752.5	0.421307	-0.0619759	2
32776.4	0.409328	-0.0617796	2
32800.4	0.397327	-0.0623992	2
32824.4	0.385348	-0.0623623	2
32848.4	0.373342	-0.0625358	2
32872.4	0.361341	-0.0627138	2
32896.3	0.349378	-0.0629639	2
32920.3	0.337398	-0.0626638	2
32944.3	0.325405	-0.0633596	2
32968.3	0.313398	-0.0634702	2
32992.3	0.301443	-0.0636383	2
33016.2	0.289459	-0.0637231	2
33040.2	0.277433	-0.0640118	2
33064.2	0.265487	-0.0645135	2
33088.2	0.253479	-0.0644495	2
33112.1	0.241507	-0.0642665	2
33136.1	0.229505	-0.0647359	2
33160.1	0.217529	-0.0649366	2
33184.1	0.205521	-0.0655533	2
33208.1	0.193524	-0.065672	2
33232	0.181551	-0.0659839	2
33256	0.169557	-0.0663631	2
33280	0.157567	-0.0666743	2
33304	0.145594	-0.0670576	2
33328	0.133599	-0.0676043	2
33351.9	0.121605	-0.0678782	2
33375.9	0.109632	-0.0678417	2
33399.9	0.0976371	-0.0683646	2
33423.9	0.0856586	-0.0689843	2
33447.8	0.073655	-0.0694513	2
33471.8	0.0616745	-0.0698532	2
33495.8	0.0496675	-0.0702635	2
33519.8	0.03769	-0.0711739	2
33543.8	0.0257184	-0.0711699	2
33567.7	0.0137094	-0.0719449	2
33591.7	0.00172417	-0.0723309	2
33601	0.00363878	0.0316922	3
33625	0.0156099	0.0432403	3
33649	0.0276224	0.0467125	3
33672.9	0.0396005	0.0490127	3
33696.9	0.0515931	0.0504055	3
33720.9	0.0635599	0.0518835	3
33744.9	0.0755393	0.0525733	3
33768.9	0.0875376	0.0532668	3
33792.8	0.0995082	0.0542932	3
33816.8	0.111522	0.0543538	3
33840.8	0.123511	0.0550016	3
33864.8	0.135498	0.0553244	3
33888.8	0.147495	0.0559169	3
33912.7	0.159462	0.0563452	3
33936.7	0.171474	0.0566223	3
33960.7	0.183445	0.056826	3
33984.7	0.195422	0.0569483	3
34008.6	0.207411	0.0570456	3
34032.6	0.219421	0.0573801	3
34056.6	0.231388	0.0577351	3
34080.6	0.243386	0.058104	3
34104.6	0.25536	0.0577719	3
34128.5	0.267382	0.0583162	3
34152.5	0.279344	0.0580421	3
34176.5	0.291337	0.057896	3
34200.5	0.303329	0.0584525	3
34224.5	0.315299	0.0585538	3
34248.4	0.327317	0.058836	3
34272.4	0.339297	0.058777	3
34296.4	0.351263	0.0589049	3
34320.4	0.363235	0.0594265	3
34344.4	0.375239	0.0593534	3
34368.3	0.38722	0.0595545	3
34392.3	0.399227	0.0597055	3
34416.3	0.411205	0.0597412	3
34440.3	0.423221	0.0597875	3
34464.2	0.435218	0.0602076	3
34488.2	0.447188	0.0597866	3
34512.2	0.459187	0.0604418	3
34536.2	0.471154	0.0598743	3
34560.2	0.483146	0.0601964	3
34584.1	0.495155	0.0602779	3
34608.1	0.50714	0.0605014	3
34632.1	0.519124	0.0605713	3
34656.1	0.531117	0.0609439	3
34680.1	0.543109	0.0610654	3
34704	0.555095	0.06118	3
34728	0.567073	0.0610036	3
34752	0.57906	0.0611943	3
34776	0.591035	0.0614581	3
34799.9	0.603039	0.0613902	3
34823.9	0.615016	0.0613197	3
34847.9	0.626993	0.0612187	3
34871.9	0.638993	0.0619229	3
34895.9	0.65099	0.0617845	3
34919.8	0.662977	0.062217	3
34943.8	0.674952	0.0621763	3
34967.8	0.686948	0.0622001	3
34991.8	0.698923	0.062087	3
35015.8	0.710918	0.0622132	3
35039.7	0.722903	0.0627119	3
35063.7	0.734905	0.0628639	3
35087.7	0.746887	0.0631165	3
35111.7	0.758881	0.0629898	3
35135.6	0.770888	0.0631181	3
35159.6	0.782851	0.0630786	3
35183.6	0.794833	0.0631879	3
35207.6	0.806824	0.0634979	3
35231.6	0.818824	0.0634784	3
35255.5	0.830808	0.0637814	3
35279.5	0.842791	0.0640501	3
35303.5	0.854785	0.0639103	3
35327.5	0.866791	0.0641668	3
35351.5	0.878773	0.0641318	3
35375.4	0.89076	0.065125	3
35399.4	0.902736	0.0646278	3
35423.4	0.914716	0.0646722	3
35447.4	0.926708	0.0645566	3
35471.3	0.938715	0.0653163	3
35495.3	0.95068	0.0651595	3
35519.3	0.962672	0.0656088	3
35543.3	0.974671	0.0654993	3
35567.3	0.986644	0.0657969	3
35591.2	0.998644	0.0657865	3
35615.2	1.01061	0.066109	3
35639.2	1.02261	0.0660097	3
35663.2	1.0346	0.0665537	3
35687.2	1.04657	0.0667314	3
35711.1	1.05855	0.0664105	3
35735.1	1.07056	0.0663082	3
35759.1	1.08255	0.0671326	3
35783.1	1.09453	0.0672198	3
35807	1.10652	0.0676965	3
35831	1.1185	0.0675254	3
35855	1.13049	0.0678537	3
35879	1.1425	0.0679974	3
35903	1.15449	0.0687029	3
35926.9	1.1665	0.0685157	3
35950.9	1.17849	0.0685342	3
35974.9	1.19046	0.0687766	3
35998.9	1.20245	0.0693593	3
36022.9	1.21442	0.0689252	3
36046.8	1.22641	0.0691802	3
36070.8	1.23842	0.0694762	3
36094.8	1.25039	0.0694311	3
36118.8	1.26238	0.0694969	3
36142.8	1.2744	0.0700372	3
36166.7	1.28637	0.0705436	3
36190.7	1.29836	0.0702631	3
36214.7	1.31035	0.0709005	3
36238.7	1.32234	0.0707939	3
36262.6	1.33432	0.0713068	3
36286.6	1.34633	0.0711893	3
36310.6	1.3583	0.0718764	3
36334.6	1.3703	0.0717248	3
36358.6	1.38229	0.0723305	3
36382.5	1.39429	0.0723654	3
36406.5	1.40625	0.0724135	3
36430.5	1.41824	0.0725651	3
36454.5	1.43025	0.0733839	3
36478.5	1.44222	0.0729392	3
36502.4	1.45421	0.0730321	3
36526.4	1.46619	0.0735254	3
36550.4	1.47819	0.0741727	3
36574.4	1.49018	0.0740862	3
36598.3	1.50216	0.0744708	3
36622.3	1.51415	0.0745403	3
36646.3	1.52613	0.0749721	3
36670.3	1.53813	0.0748087	3
36694.3	1.55012	0.0755366	3
36718.2	1.56211	0.0756183	3
36742.2	1.57407	0.0756623	3
36766.2	1.58607	0.0761284	3
36790.2	1.59806	0.0761541	3
36814.2	1.61005	0.076743	3
36838.1	1.62204	0.0765494	3
36862.1	1.63403	0.0767631	3
36886.1	1.64602	0.0770702	3
36910.1	1.65803	0.0773831	3
36934	1.67002	0.0777536	3
36958	1.68197	0.0776964	3
36982	1.69399	0.07808	3
37006	1.70599	0.0783647	3
37030	1.71795	0.0784395	3
37053.9	1.72994	0.0787532	3
37077.9	1.74192	0.0790911	3
37101.9	1.7539	0.0787475	3
37125.9	1.76589	0.0793396	3
37149.9	1.77788	0.0793988	3
37173.8	1.78988	0.0792086	3
37197.8	1.80187	0.0800516	3
37221.8	1.81385	0.0800308	3
37245.8	1.82585	0.0800394	3
37269.7	1.83782	0.0807494	3
37293.7	1.84982	0.0808757	3
37317.7	1.86183	0.0814841	3
37341.7	1.87381	0.0812483	3
37365.7	1.88581	0.0814259	3
37389.6	1.89778	0.0820204	3
37413.6	1.90977	0.0817849	3
37437.6	1.92175	0.0819384	3
37461.6	1.93374	0.0824348	3
37485.6	1.94572	0.0827791	3
37509.5	1.95771	0.0829765	3
37533.5	1.96972	0.0832969	3
37557.5	1.98171	0.0836631	3
37581.5	1.99369	0.0839011	3
37605.5	2.00569	0.0839757	3
37629.4	2.01768	0.0840245	3
37653.4	2.02966	0.084367	3
37677.4	2.04166	0.0842404	3
37701.4	2.05364	0.0846649	3
37725.3	2.06564	0.0850264	3
37749.3	2.07763	0.0852499	3
37773.3	2.08961	0.0857395	3
37797.3	2.1016	0.0860888	3
37821.3	2.11358	0.0862968	3
37845.2	2.12556	0.0867385	3
37869.2	2.13756	0.0863928	3
37893.2	2.14954	0.0871937	3
37917.2	2.16153	0.0871537	3
37941.2	2.17352	0.0876121	3
37965.1	2.18549	0.0873174	3
37989.1	2.19747	0.0877111	3
38013.1	2.20948	0.0882652	3
38037.1	2.22148	0.0884361	3
38061	2.23347	0.0888685	3
38085	2.24545	0.0890891	3
38109	2.25744	0.0893213	3
38133	2.26943	0.0898744	3
38157	2.28142	0.0902539	3
38180.9	2.29343	0.0909259	3
38204.9	2.3054	0.0903273	3
38228.9	2.31738	0.090793	3
38252.9	2.32938	0.0914064	3
38276.9	2.34136	0.091575	3
38300.8	2.35335	0.0919087	3
38324.8	2.36534	0.0922104	3
38348.8	2.37733	0.092221	3
38372.8	2.38932	0.0927385	3
38396.7	2.4013	0.0931919	3
38420.7	2.41331	0.0931957	3
38444.7	2.4253	0.09365	3
38468.7	2.43728	0.0940576	3
38492.7	2.44928	0.0946885	3
38516.6	2.46126	0.095473	3
38540.6	2.47325	0.0956686	3
38564.6	2.48522	0.0963619	3
38588.6	2.49721	0.0965296	3
38612.6	2.50922	0.0972307	3
38636.5	2.5212	0.0975954	3
38660.5	2.53317	0.0978151	3
38684.5	2.54517	0.098435	3
38708.5	2.55717	0.0988569	3
38732.4	2.56916	0.0998894	3
38756.4	2.58114	0.100227	3
38780.4	2.59313	0.10056	3
38804.4	2.60513	0.100974	3
38828.4	2.61711	0.101757	3
38852.3	2.62909	0.102503	3
38876.3	2.64107	0.103245	3
38900.3	2.65306	0.104186	3
38924.3	2.66508	0.104859	3
38948.3	2.67707	0.105611	3
38972.2	2.68905	0.106884	3
38994.3	2.70013	0.106643	3
39012.5	2.69115	-0.0328337	3
39036.5	2.67917	-0.040363	3
39060.5	2.66718	-0.0443846	3
39084.4	2.65516	-0.046727	3
39108.4	2.64319	-0.048776	3
39132.4	2.63119	-0.049812	3
39156.4	2.61922	-0.0519205	3
39180.4	2.60723	-0.052629	3
39204.3	2.59522	-0.0531652	3
39228.3	2.58324	-0.0541192	3
39252.3	2.57125	-0.0549302	3
39276.3	2.55925	-0.055784	3
39300.2	2.54726	-0.0563096	3
39324.2	2.53526	-0.0566639	3
39348.2	2.5233	-0.0572907	3
39372.2	2.51131	-0.0583397	3
39396.2	2.49933	-0.0578238	3
39420.1	2.48735	-0.0581671	3
39444.1	2.47536	-0.0588919	3
39468.1	2.46333	-0.0590686	3
39492.1	2.45136	-0.0593758	3
39516.1	2.43938	-0.0595974	3
39540	2.42739	-0.0600298	3
39564	2.41541	-0.0604719	3
39588	2.40339	-0.0608404	3
39612	2.39141	-0.0610641	3
39635.9	2.37942	-0.0612891	3
39659.9	2.36743	-0.0613546	3
39683.9	2.35544	-0.0619062	3
39707.9	2.34345	-0.0619362	3
39731.9	2.33149	-0.0622251	3
39755.8	2.31948	-0.0622931	3
39779.8	2.30748	-0.0623929	3
39803.8	2.29552	-0.0627673	3
39827.8	2.28352	-0.062499	3
39851.8	2.27153	-0.062741	3
39875.7	2.25954	-0.0630766	3
39899.7	2.24755	-0.0634251	3
39923.7	2.23558	-0.0634518	3
39947.7	2.22357	-0.0634693	3
39971.6	2.2116	-0.0636473	3
39995.6	2.19961	-0.0636293	3
40019.6	2.18761	-0.0636294	3
40043.6	2.17563	-0.0640633	3
40067.6	2.16365	-0.0641864	3
40091.5	2.15166	-0.0643044	3
40115.5	2.13968	-0.0639188	3
40139.5	2.12768	-0.0639988	3
40163.5	2.11569	-0.0638015	3
40187.5	2.10371	-0.0635994	3
40211.4	2.09172	-0.0638987	3
40235.4	2.07972	-0.0642335	3
40259.4	2.06771	-0.0637894	3
40283.4	2.05573	-0.0646545	3
40307.3	2.04376	-0.0644116	3
40331.3	2.03176	-0.0644165	3
40355.3	2.01979	-0.0645834	3
40379.3	2.0078	-0.0649291	3
40403.3	1.99579	-0.0647345	3
40427.2	1.98379	-0.0640097	3
40451.2	1.97181	-0.0653449	3
40475.2	1.95985	-0.0649255	3
40499.2	1.94786	-0.0649315	3
40523.2	1.93584	-0.0651023	3
40547.1	1.92387	-0.064998	3
40571.1	1.91187	-0.0652069	3
40595.1	1.8999	-0.0649739	3
40619.1	1.88791	-0.0655119	3
40643	1.8759	-0.0651269	3
40667	1.86395	-0.0654603	3
40691	1.85194	-0.0655635	3
40715	1.83995	-0.0653656	3
40739	1.82796	-0.0658228	3
40762.9	1.81598	-0.0657652	3
40786.9	1.80398	-0.0659987	3
40810.9	1.79201	-0.0659674	3
40834.9	1.78	-0.0663939	3
40858.9	1.76801	-0.0663864	3
40882.8	1.75603	-0.0664981	3
40906.8	1.74404	-0.0656782	3
40930.8	1.73205	-0.0659441	3
40954.8	1.72007	-0.0664602	3
40978.7	1.70809	-0.065944	3
41002.7	1.6961	-0.0661021	3
41026.7	1.68409	-0.0661099	3
41050.7	1.67211	-0.0659523	3
41074.7	1.66015	-0.0661808	3
41098.6	1.64814	-0.0663157	3
41122.6	1.63613	-0.0661345	3
41146.6	1.62417	-0.0664783	3
41170.6	1.61218	-0.0664148	3
41194.6	1.60018	-0.0660165	3
41218.5	1.58819	-0.0662819	3
41242.5	1.5762	-0.0662558	3
41266.5	1.5642	-0.0661087	3
41290.5	1.55224	-0.0660707	3
41314.4	1.54022	-0.0656784	3
41338.4	1.52824	-0.0659563	3
41362.4	1.51625	-0.0659215	3
41386.4	1.50427	-0.0660405	3
41410.4	1.4923	-0.0657161	3
41434.3	1.48031	-0.0655307	3
41458.3	1.4683	-0.0655554	3
41482.3	1.45631	-0.0658523	3
41506.3	1.44431	-0.0660744	3
41530.3	1.43235	-0.0657847	3
41554.2	1.42034	-0.0655183	3
41578.2	1.40835	-0.0656253	3
41602.2	1.39639	-0.0653814	3
41626.2	1.3844	-0.0651166	3
41650.2	1.37239	-0.0647997	3
41674.1	1.36041	-0.0652746	3
41698.1	1.34842	-0.0651388	3
41722.1	1.33644	-0.0650707	3
41746.1	1.32444	-0.0643032	3
41770	1.31245	-0.0646703	3
41794	1.30046	-0.0644762	3
41818	1.28848	-0.0643453	3
41842	1.27651	-0.064547	3
41866	1.2645	-0.0644168	3
41889.9	1.25252	-0.0643417	3
41913.9	1.24052	-0.0642123	3
41937.9	1.22853	-0.0637734	3
41961.9	1.21655	-0.0639842	3
41985.9	1.20456	-0.0637469	3
42009.8	1.19257	-0.0638917	3
42033.8	1.18058	-0.063289	3
42057.8	1.1686	-0.0635163	3
42081.8	1.15661	-0.0633976	3
42105.7	1.14462	-0.0631504	3
42129.7	1.13261	-0.0631084	3
42153.7	1.12064	-0.0633469	3
42177.7	1.10864	-0.0631239	3
42201.7	1.09665	-0.0627611	3
42225.6	1.08468	-0.0627502	3
42249.6	1.07269	-0.0629079	3
42273.6	1.06069	-0.0629995	3
42297.6	1.04871	-0.0627874	3
42321.6	1.0367	-0.0625555	3
42345.5	1.02472	-0.0628607	3
42369.5	1.01273	-0.0622294	3
42393.5	1.00076	-0.0625224	3
42417.5	0.988768	-0.0625833	3
42441.4	0.976794	-0.062071	3
42465.4	0.964787	-0.0621697	3
42489.4	0.952806	-0.062053	3
42513.4	0.940809	-0.0621607	3
42537.4	0.928829	-0.0620143	3
42561.3	0.916843	-0.0618608	3
42585.3	0.904839	-0.0617895	3
42609.3	0.892859	-0.0618039	3
42633.3	0.880867	-0.0613548	3
42657.3	0.868876	-0.0615618	3
42681.2	0.856899	-0.0613288	3
42705.2	0.844929	-0.0615399	3
42729.2	0.832918	-0.0617572	3
42753.2	0.820924	-0.0612133	3
42777.1	0.808956	-0.0615493	3
42801.1	0.796955	-0.0616383	3
42825.1	0.78497	-0.0609817	3
42849.1	0.772977	-0.0611336	3
42873.1	0.760995	-0.0611286	3
42897	0.749006	-0.0610572	3
42921	0.737026	-0.0606969	3
42945	0.72502	-0.0607292	3
42969	0.713034	-0.0604019	3
42993	0.701045	-0.060508	3
43016.9	0.689066	-0.0611114	3
43040.9	0.677074	-0.0610259	3
43064.9	0.66508	-0.0608515	3
43088.9	0.653111	-0.0609276	3
43112.8	0.64111	-0.0607297	3
43136.8	0.629123	-0.0605901	3
43160.8	0.617111	-0.0610301	3
43184.8	0.605134	-0.0608219	3
43208.8	0.59316	-0.0608186	3
43232.7	0.581169	-0.0611254	3
43256.7	0.569181	-0.0607344	3
43280.7	0.557196	-0.0609725	3
43304.7	0.54521	-0.0607143	3
43328.7	0.533226	-0.060467	3
43352.6	0.521235	-0.0610014	3
43376.6	0.509222	-0.0611687	3
43400.6	0.497255	-0.0613473	3
43424.6	0.485266	-0.0611953	3
43448.5	0.473277	-0.0615864	3
43472.5	0.461279	-0.0614451	3
43496.5	0.449306	-0.0618593	3
43520.5	0.437325	-0.0615756	3
43544.5	0.425325	-0.0617372	3
43568.4	0.413328	-0.0614507	3
43592.4	0.401353	-0.0617848	3
43616.4	0.38936	-0.0618669	3
43640.4	0.377372	-0.0619696	3
43664.4	0.365399	-0.0622416	3
43688.3	0.353395	-0.0628166	3
43712.3	0.341431	-0.0624848	3
43736.3	0.329445	-0.0625166	3
43760.3	0.317442	-0.0629129	3
43784.3	0.305477	-0.0627346	3
43808.2	0.293455	-0.0634683	3
43832.2	0.28147	-0.0637198	3
43856.2	0.269478	-0.0640246	3
43880.2	0.257516	-0.0640636	3
43904.1	0.245519	-0.0641644	3
43928.1	0.233521	-0.064729	3
43952.1	0.221549	-0.0650076	3
43976.1	0.209547	-0.0649821	3
44000.1	0.19755	-0.0655633	3
44024	0.185578	-0.0656608	3
44048	0.173601	-0.0663883	3
44072	0.161584	-0.0664092	3
44096	0.14964	-0.0665326	3
44120	0.137629	-0.0674871	3
44143.9	0.125637	-0.0676274	3
44167.9	0.113621	-0.0684892	3
44191.9	0.101648	-0.0683415	3
44215.9	0.0896609	-0.0687854	3
44239.8	0.0776688	-0.0692681	3
44263.8	0.065689	-0.0696412	3
44287.8	0.0536936	-0.0702043	3
44311.8	0.041701	-0.0708097	3
44335.8	0.0297293	-0.0713628	3
44359.7	0.0177602	-0.0716036	3
44383.7	0.0057514	-0.0722061	3
44394.9	0.000588403	0.00163802	3