File: data/demo_data/cvs_after_aging/test_5_mVS_CV_after_aging.txt
time/s	Ewe/V	<I>/mA	cycle number
2274.14	2.6823	0.970181	1
2280.18	2.68711	-0.27314	1
2286.98	2.65311	-0.304406	1
2293.77	2.61914	-0.307986	1
2300.57	2.58517	-0.307774	1
2307.36	2.55121	-0.308639	1
2314.15	2.51723	-0.311639	1
2320.95	2.48325	-0.316523	1
2327.74	2.44931	-0.320624	1
2334.54	2.41533	-0.327509	1
2341.33	2.38138	-0.334778	1
2348.12	2.34739	-0.341004	1
2354.92	2.31343	-0.348966	1
2361.71	2.27945	-0.356796	1
2368.51	2.24549	-0.363381	1
2375.3	2.21152	-0.370474	1
2382.09	2.17758	-0.376927	1
2388.89	2.1436	-0.383817	1
2395.68	2.10963	-0.390567	1
2402.48	2.07566	-0.397468	1
2409.27	2.04168	-0.403222	1
2416.07	2.00771	-0.409446	1
2422.86	1.97373	-0.416386	1
2429.65	1.93978	-0.421995	1
2436.45	1.90582	-0.428303	1
2443.24	1.87186	-0.433999	1
2450.04	1.83787	-0.439234	1
2456.83	1.8039	-0.445435	1
2463.62	1.76995	-0.45008	1
2470.42	1.73596	-0.455322	1
2477.21	1.702	-0.460115	1
2484.01	1.66803	-0.463543	1
2490.8	1.63406	-0.467148	1
2497.59	1.6001	-0.469319	1
2504.39	1.56614	-0.471669	1
2511.18	1.53215	-0.473138	1
2517.98	1.49821	-0.474153	1
2524.77	1.46426	-0.47426	1
2531.56	1.43028	-0.473263	1
2538.36	1.39631	-0.472066	1
2545.15	1.36234	-0.469722	1
2551.95	1.32838	-0.467136	1
2558.74	1.29439	-0.46528	1
2565.53	1.26043	-0.462379	1
2572.33	1.22645	-0.459346	1
2579.12	1.1925	-0.457531	1
2585.92	1.15853	-0.455147	1
2592.71	1.12455	-0.454077	1
2599.51	1.09059	-0.453225	1
2606.3	1.05665	-0.451662	1
2613.09	1.02265	-0.453582	1
2619.89	0.988723	-0.454112	1
2626.68	0.954747	-0.456287	1
2633.48	0.92079	-0.459137	1
2640.27	0.886829	-0.46222	1
2647.06	0.852845	-0.464822	1
2653.86	0.818881	-0.468205	1
2660.65	0.784897	-0.470844	1
2667.45	0.750935	-0.472759	1
2674.24	0.716931	-0.476509	1
2681.03	0.682995	-0.477905	1
2687.83	0.64904	-0.479563	1
2694.62	0.615073	-0.481294	1
2701.42	0.581108	-0.483335	1
2708.21	0.547152	-0.487218	1
2715	0.513183	-0.490504	1
2721.8	0.47923	-0.495185	1
2728.59	0.44528	-0.5016	1
2735.39	0.411279	-0.510381	1
2742.18	0.377322	-0.518388	1
2748.97	0.343347	-0.52862	1
2755.77	0.309371	-0.540865	1
2762.56	0.275415	-0.552062	1
2769.36	0.241463	-0.566363	1
2776.15	0.207487	-0.581253	1
2782.95	0.173551	-0.595765	1
2789.74	0.139569	-0.61247	1
2796.53	0.105598	-0.630978	1
2803.33	0.0716258	-0.649233	1
2810.12	0.0376564	-0.67074	1
2816.92	0.00368993	-0.693952	1
2822.98	0.0273925	0.118847	1
2829.77	0.0613396	0.208017	1
2836.57	0.0953038	0.250707	1
2843.36	0.129275	0.275144	1
2850.16	0.163252	0.291032	1
2856.95	0.197192	0.301707	1
2863.75	0.231168	0.30936	1
2870.54	0.265135	0.314678	1
2877.33	0.299126	0.319748	1
2884.13	0.333067	0.323216	1
2890.92	0.36702	0.327027	1
2897.72	0.400995	0.331439	1
2904.51	0.434971	0.334961	1
2911.3	0.468927	0.339536	1
2918.1	0.502899	0.344663	1
2924.89	0.536875	0.349088	1
2931.69	0.570849	0.353623	1
2938.48	0.604795	0.356975	1
2945.27	0.638783	0.359264	1
2952.07	0.67274	0.36053	1
2958.86	0.706691	0.360793	1
2965.66	0.740686	0.361176	1
2972.45	0.774629	0.361313	1
2979.24	0.808615	0.360892	1
2986.04	0.842572	0.361293	1
2992.83	0.876539	0.361517	1
2999.63	0.910497	0.363332	1
3006.42	0.944465	0.364799	1
3013.21	0.978432	0.368067	1
3020.01	1.01238	0.371134	1
3026.8	1.04637	0.374833	1
3033.6	1.08033	0.379032	1
3040.39	1.1143	0.383094	1
3047.19	1.14826	0.386842	1
3053.98	1.18224	0.391467	1
3060.77	1.2162	0.394757	1
3067.57	1.25017	0.398284	1
3074.36	1.28413	0.401739	1
3081.16	1.31811	0.404018	1
3087.95	1.35207	0.405984	1
3094.74	1.38605	0.408976	1
3101.54	1.42002	0.411715	1
3108.33	1.45399	0.414365	1
3115.13	1.48793	0.417348	1
3121.92	1.5219	0.419051	1
3128.71	1.5559	0.423022	1
3135.51	1.58985	0.42598	1
3142.3	1.6238	0.429573	1
3149.1	1.65777	0.432916	1
3155.89	1.69175	0.437752	1
3162.68	1.72572	0.441472	1
3169.48	1.75968	0.446342	1
3176.27	1.79362	0.451181	1
3183.07	1.82761	0.456395	1
3189.86	1.86158	0.461264	1
3196.66	1.89553	0.46668	1
3203.45	1.92952	0.472216	1
3210.24	1.96349	0.478335	1
3217.04	1.99744	0.483092	1
3223.83	2.03141	0.488096	1
3230.63	2.06539	0.4938	1
3237.42	2.09935	0.498591	1
3244.21	2.13333	0.503368	1
3251.01	2.16729	0.50774	1
3257.8	2.20125	0.510968	1
3264.6	2.2352	0.514202	1
3271.39	2.26916	0.518694	1
3278.18	2.30314	0.521151	1
3284.98	2.33711	0.524237	1
3291.77	2.37111	0.528409	1
3298.57	2.40504	0.530424	1
3305.36	2.43902	0.533571	1
3312.15	2.47297	0.537362	1
3318.95	2.50695	0.542463	1
3325.74	2.5409	0.546151	1
3332.54	2.57488	0.552979	1
3339.33	2.60886	0.559637	1
3346.12	2.64282	0.566794	1
3352.92	2.67678	0.576472	1
3358.58	2.69506	-0.0809214	2
3365.38	2.66108	-0.256684	2
3372.17	2.62713	-0.293265	2
3378.97	2.59316	-0.310298	2
3385.76	2.55918	-0.319123	2
3392.55	2.52521	-0.323946	2
3399.35	2.49125	-0.327512	2
3406.14	2.45728	-0.32894	2
3412.94	2.42333	-0.330928	2
3419.73	2.38937	-0.332574	2
3426.52	2.35537	-0.334597	2
3433.32	2.32143	-0.336988	2
3440.11	2.28745	-0.341244	2
3446.91	2.25351	-0.344011	2
3453.7	2.21954	-0.347531	2
3460.5	2.18554	-0.351765	2
3467.29	2.15157	-0.355898	2
3474.08	2.11764	-0.3597	2
3480.88	2.08365	-0.364188	2
3487.67	2.04967	-0.36865	2
3494.47	2.01571	-0.372421	2
3501.26	1.98175	-0.376483	2
3508.05	1.94778	-0.380442	2
3514.85	1.91382	-0.384532	2
3521.64	1.87984	-0.389474	2
3528.44	1.84589	-0.393955	2
3535.23	1.81191	-0.397791	2
3542.02	1.77794	-0.402167	2
3548.82	1.74397	-0.406366	2
3555.61	1.71	-0.410553	2
3562.41	1.67601	-0.415516	2
3569.2	1.64205	-0.420069	2
3575.99	1.60809	-0.424329	2
3582.79	1.57412	-0.428273	2
3589.58	1.54015	-0.430857	2
3596.38	1.50621	-0.434158	2
3603.17	1.47224	-0.436947	2
3609.96	1.43828	-0.438186	2
3616.76	1.4043	-0.438925	2
3623.55	1.37033	-0.438461	2
3630.35	1.33636	-0.438779	2
3637.14	1.30239	-0.43724	2
3643.94	1.26843	-0.435914	2
3650.73	1.23445	-0.433334	2
3657.52	1.2005	-0.43202	2
3664.32	1.16653	-0.430191	2
3671.11	1.13256	-0.427647	2
3677.91	1.09858	-0.426802	2
3684.7	1.06461	-0.42546	2
3691.49	1.03065	-0.425558	2
3698.29	0.996685	-0.425799	2
3705.08	0.962726	-0.427257	2
3711.88	0.92875	-0.428834	2
3718.67	0.894765	-0.430074	2
3725.46	0.860812	-0.43308	2
3732.26	0.826835	-0.435456	2
3739.05	0.792869	-0.438522	2
3745.85	0.758925	-0.440963	2
3752.64	0.72494	-0.444729	2
3759.43	0.690999	-0.446519	2
3766.23	0.657035	-0.448912	2
3773.02	0.623054	-0.450972	2
3779.82	0.589099	-0.452561	2
3786.61	0.555138	-0.454569	2
3793.4	0.521162	-0.457664	2
3800.2	0.487209	-0.461735	2
3806.99	0.453243	-0.467085	2
3813.79	0.419256	-0.473051	2
3820.58	0.385301	-0.481069	2
3827.38	0.351332	-0.490097	2
3834.17	0.31736	-0.500542	2
3840.96	0.283373	-0.51138	2
3847.76	0.249428	-0.52394	2
3854.55	0.215482	-0.536525	2
3861.35	0.181504	-0.551362	2
3868.14	0.147532	-0.566165	2
3874.93	0.11356	-0.583094	2
3881.73	0.0795775	-0.601855	2
3888.52	0.0456292	-0.621941	2
3895.32	0.0116739	-0.645115	2
3901.38	0.019365	0.120069	2
3908.18	0.0533282	0.222665	2
3914.97	0.0873119	0.265978	2
3921.76	0.12129	0.290166	2
3928.56	0.155247	0.303532	2
3935.35	0.189223	0.312686	2
3942.15	0.223202	0.318717	2
3948.94	0.257137	0.322206	2
3955.73	0.291105	0.324552	2
3962.53	0.325062	0.32797	2
3969.32	0.359028	0.330032	2
3976.12	0.392998	0.33302	2
3982.91	0.426982	0.336719	2
3989.7	0.460943	0.3402	2
3996.5	0.494904	0.344159	2
4003.29	0.528874	0.348686	2
4010.09	0.56283	0.351671	2
4016.88	0.59678	0.355248	2
4023.67	0.630789	0.357987	2
4030.47	0.664736	0.358814	2
4037.26	0.698703	0.359289	2
4044.06	0.732672	0.359969	2
4050.85	0.766654	0.359241	2
4057.65	0.800621	0.359517	2
4064.44	0.83457	0.360517	2
4071.23	0.86853	0.360784	2
4078.03	0.902516	0.362708	2
4084.82	0.936485	0.365122	2
4091.62	0.970456	0.367517	2
4098.41	1.00442	0.371146	2
4105.2	1.03836	0.375414	2
4112	1.07233	0.378417	2
4118.79	1.10632	0.382903	2
4125.59	1.14029	0.387726	2
4132.38	1.17424	0.391005	2
4139.17	1.20821	0.394635	2
4145.97	1.2422	0.398218	2
4152.76	1.27613	0.400579	2
4159.56	1.31012	0.403747	2
4166.35	1.34409	0.407094	2
4173.14	1.37806	0.408762	2
4179.94	1.41202	0.412507	2
4186.73	1.44599	0.415332	2
4193.53	1.47994	0.41785	2
4200.32	1.51393	0.421487	2
4207.11	1.54788	0.424628	2
4213.91	1.58184	0.428176	2
4220.7	1.61581	0.432491	2
4227.5	1.64978	0.436459	2
4234.29	1.68376	0.44112	2
4241.09	1.71771	0.446278	2
4247.88	1.75169	0.450813	2
4254.67	1.78566	0.456371	2
4261.47	1.8196	0.462174	2
4268.26	1.85358	0.46798	2
4275.06	1.88755	0.472896	2
4281.85	1.92152	0.479458	2
4288.64	1.95549	0.484883	2
4295.44	1.98947	0.489887	2
4302.23	2.02343	0.495254	2
4309.03	2.05738	0.50041	2
4315.82	2.09136	0.505169	2
4322.61	2.12532	0.509912	2
4329.41	2.1593	0.514311	2
4336.2	2.19326	0.517379	2
4343	2.22721	0.520226	2
4349.79	2.26119	0.524618	2
4356.58	2.29516	0.527314	2
4363.38	2.32913	0.530616	2
4370.17	2.36309	0.534304	2
4376.97	2.39706	0.53706	2
4383.76	2.43101	0.540899	2
4390.55	2.46499	0.544907	2
4397.35	2.49897	0.549643	2
4404.14	2.53293	0.554813	2
4410.94	2.56692	0.561263	2
4417.73	2.60086	0.568153	2
4424.53	2.63483	0.577695	2
4431.32	2.66879	0.587024	2
4437.47	2.69953	0.597488	3
4443.78	2.66909	-0.244063	3
4450.57	2.63513	-0.291705	3
4457.37	2.60116	-0.312027	3
4464.16	2.5672	-0.323294	3
4470.96	2.53324	-0.32921	3
4477.75	2.49926	-0.331617	3
4484.54	2.4653	-0.334278	3
4491.34	2.43131	-0.335899	3
4498.13	2.39734	-0.337103	3
4504.93	2.36339	-0.339245	3
4511.72	2.32942	-0.34109	3
4518.51	2.29545	-0.343868	3
4525.31	2.26149	-0.346785	3
4532.1	2.2275	-0.350101	3
4538.9	2.19354	-0.354011	3
4545.69	2.15957	-0.357784	3
4552.48	2.12561	-0.362048	3
4559.28	2.09164	-0.365209	3
4566.07	2.05769	-0.369995	3
4572.87	2.02372	-0.373626	3
4579.66	1.98974	-0.377166	3
4586.45	1.95578	-0.381662	3
4593.25	1.92182	-0.385371	3
4600.04	1.88783	-0.389347	3
4606.84	1.85389	-0.393406	3
4613.63	1.81992	-0.397647	3
4620.42	1.78596	-0.40158	3
4627.22	1.75199	-0.40586	3
4634.01	1.71801	-0.410415	3
4640.81	1.68404	-0.41408	3
4647.6	1.65008	-0.419395	3
4654.4	1.61611	-0.422852	3
4661.19	1.58213	-0.426624	3
4667.98	1.54816	-0.430464	3
4674.78	1.5142	-0.433757	3
4681.57	1.48022	-0.436526	3
4688.37	1.44627	-0.437509	3
4695.16	1.41229	-0.438958	3
4701.95	1.37834	-0.439662	3
4708.75	1.34438	-0.439914	3
4715.54	1.3104	-0.437664	3
4722.34	1.27645	-0.43692	3
4729.13	1.24248	-0.435237	3
4735.92	1.20849	-0.432752	3
4742.72	1.17451	-0.430347	3
4749.51	1.14056	-0.428862	3
4756.31	1.10659	-0.427267	3
4763.1	1.07264	-0.425959	3
4769.89	1.03866	-0.425324	3
4776.69	1.00468	-0.424693	3
4783.48	0.970706	-0.425305	3
4790.28	0.936768	-0.426773	3
4797.07	0.902785	-0.427893	3
4803.86	0.868823	-0.429796	3
4810.66	0.834865	-0.432836	3
4817.45	0.800892	-0.434876	3
4824.25	0.766929	-0.437879	3
4831.04	0.732961	-0.44101	3
4837.84	0.698995	-0.442917	3
4844.63	0.665013	-0.445193	3
4851.42	0.631046	-0.447706	3
4858.22	0.597075	-0.44945	3
4865.01	0.563113	-0.451574	3
4871.81	0.529177	-0.453423	3
4878.6	0.495199	-0.456408	3
4885.39	0.461229	-0.461206	3
4892.19	0.427248	-0.466861	3
4898.98	0.393281	-0.474024	3
4905.78	0.359303	-0.481367	3
4912.57	0.325376	-0.490371	3
4919.36	0.291392	-0.501005	3
4926.16	0.25742	-0.512964	3
4932.95	0.22349	-0.524743	3
4939.75	0.189513	-0.537417	3
4946.54	0.155521	-0.553254	3
4953.33	0.121576	-0.56769	3
4960.13	0.0875986	-0.58552	3
4966.92	0.0536393	-0.604014	3
4973.72	0.019657	-0.624622	3
4979.78	0.011371	0.0767239	3
4986.58	0.0453362	0.218508	3
4993.37	0.0793107	0.267193	3
5000.16	0.113282	0.292517	3
5006.96	0.147238	0.306533	3
5013.75	0.181211	0.314818	3
5020.55	0.215181	0.32146	3
5027.34	0.249149	0.324906	3
5034.13	0.283108	0.327248	3
5040.93	0.317062	0.329934	3
5047.72	0.351058	0.33182	3
5054.52	0.385011	0.334207	3
5061.31	0.418984	0.336998	3
5068.1	0.452962	0.340637	3
5074.9	0.486932	0.344289	3
5081.69	0.520873	0.348501	3
5088.49	0.554845	0.35176	3
5095.28	0.588809	0.355347	3
5102.08	0.622774	0.357528	3
5108.87	0.656765	0.358523	3
5115.66	0.69073	0.359268	3
5122.46	0.724672	0.359709	3
5129.25	0.758673	0.35976	3
5136.05	0.792602	0.359428	3
5142.84	0.826596	0.360171	3
5149.63	0.860554	0.362063	3
5156.43	0.894496	0.3628	3
5163.22	0.928459	0.365157	3
5170.02	0.962454	0.368017	3
5176.81	0.996418	0.371351	3
5183.6	1.03038	0.375557	3
5190.4	1.06436	0.379718	3
5197.19	1.09832	0.38321	3
5203.99	1.13228	0.387049	3
5210.78	1.16628	0.391435	3
5217.57	1.20022	0.393894	3
5224.37	1.23419	0.397896	3
5231.16	1.26815	0.400325	3
5237.96	1.30212	0.403641	3
5244.75	1.33608	0.407089	3
5251.54	1.37006	0.410123	3
5258.34	1.40402	0.412409	3
5265.13	1.43801	0.415754	3
5271.93	1.47196	0.41795	3
5278.72	1.50593	0.420746	3
5285.52	1.53991	0.426076	3
5292.31	1.57387	0.429881	3
5299.1	1.60785	0.433632	3
5305.9	1.6418	0.437715	3
5312.69	1.67577	0.442898	3
5319.49	1.70974	0.447897	3
5326.28	1.7437	0.453733	3
5333.07	1.77766	0.458858	3
5339.87	1.81163	0.464343	3
5346.66	1.8456	0.471531	3
5353.46	1.87956	0.47673	3
5360.25	1.91353	0.481988	3
5367.04	1.94751	0.488447	3
5373.84	1.98148	0.492833	3
5380.63	2.01544	0.498249	3
5387.43	2.0494	0.503775	3
5394.22	2.08337	0.507563	3
5401.01	2.11736	0.512833	3
5407.81	2.1513	0.516951	3
5414.6	2.18529	0.520551	3
5421.4	2.21925	0.524144	3
5428.19	2.25319	0.526906	3
5434.99	2.28716	0.530209	3
5441.78	2.32116	0.533819	3
5448.57	2.35509	0.536944	3
5455.37	2.38908	0.539655	3
5462.16	2.42304	0.545033	3
5468.96	2.45699	0.548799	3
5475.75	2.49095	0.553219	3
5482.54	2.52494	0.558282	3
5489.34	2.55891	0.565577	3
5496.13	2.59286	0.573645	3
5502.93	2.62685	0.583687	3
5509.72	2.6608	0.592575	3
5515.96	2.69204	0.603208	4
5522.18	2.6771	-0.22466	4
5528.97	2.64312	-0.287526	4
5535.77	2.60915	-0.312435	4
5542.56	2.57519	-0.324687	4
5549.36	2.54121	-0.332264	4
5556.15	2.50726	-0.335918	4
5562.94	2.47329	-0.338264	4
5569.74	2.43932	-0.339476	4
5576.53	2.40533	-0.340797	4
5583.33	2.3714	-0.341693	4
5590.12	2.33741	-0.343902	4
5596.91	2.30345	-0.346763	4
5603.71	2.26947	-0.34942	4
5610.5	2.23552	-0.352353	4
5617.3	2.20154	-0.355863	4
5624.09	2.16759	-0.358553	4
5630.88	2.13362	-0.362394	4
5637.68	2.09965	-0.367247	4
5644.47	2.06568	-0.370314	4
5651.27	2.03171	-0.374873	4
5658.06	1.99774	-0.378638	4
5664.86	1.96378	-0.382057	4
5671.65	1.9298	-0.385906	4
5678.44	1.89584	-0.390374	4
5685.24	1.86188	-0.394272	4
5692.03	1.8279	-0.397771	4
5698.83	1.79393	-0.402137	4
5705.62	1.75996	-0.405676	4
5712.41	1.72598	-0.4105	4
5719.21	1.69202	-0.414738	4
5726	1.65806	-0.417898	4
5732.8	1.62409	-0.422329	4
5739.59	1.59013	-0.42642	4
5746.38	1.55618	-0.429277	4
5753.18	1.52218	-0.433433	4
5759.97	1.48822	-0.435768	4
5766.77	1.45427	-0.437761	4
5773.56	1.42028	-0.439669	4
5780.35	1.38633	-0.440666	4
5787.15	1.35235	-0.440057	4
5793.94	1.31838	-0.439848	4
5800.74	1.28443	-0.438058	4
5807.53	1.25044	-0.436706	4
5814.32	1.21648	-0.434703	4
5821.12	1.18252	-0.432274	4
5827.91	1.14856	-0.430716	4
5834.71	1.11459	-0.428672	4
5841.5	1.08064	-0.426568	4
5848.3	1.04666	-0.425594	4
5855.09	1.01268	-0.425011	4
5861.88	0.978709	-0.425766	4
5868.68	0.944738	-0.425585	4
5875.47	0.910761	-0.427486	4
5882.27	0.876815	-0.428403	4
5889.06	0.842843	-0.431623	4
5895.85	0.808887	-0.433975	4
5902.65	0.774917	-0.436116	4
5909.44	0.740936	-0.438626	4
5916.24	0.706954	-0.441662	4
5923.03	0.673009	-0.442856	4
5929.82	0.639045	-0.446006	4
5936.62	0.605084	-0.447521	4
5943.41	0.571125	-0.449307	4
5950.21	0.537175	-0.451722	4
5957	0.503184	-0.454196	4
5963.79	0.469191	-0.458615	4
5970.59	0.435251	-0.463687	4
5977.38	0.401242	-0.469539	4
5984.18	0.367301	-0.476838	4
5990.97	0.333351	-0.485516	4
5997.76	0.299373	-0.495081	4
6004.56	0.265406	-0.50558	4
6011.35	0.231442	-0.51803	4
6018.15	0.19746	-0.529846	4
6024.94	0.16351	-0.544011	4
6031.74	0.129535	-0.559212	4
6038.53	0.0955733	-0.575261	4
6045.32	0.0616214	-0.592648	4
6052.12	0.0276768	-0.612464	4
6058.18	0.00336738	-0.105682	4
6064.98	0.0373449	0.206549	4
6071.77	0.0713245	0.263715	4
6078.56	0.105275	0.291163	4
6085.36	0.139269	0.306519	4
6092.15	0.173225	0.31625	4
6098.95	0.207172	0.321788	4
6105.74	0.241144	0.325657	4
6112.54	0.275105	0.327919	4
6119.33	0.309063	0.330561	4
6126.12	0.343034	0.332387	4
6132.92	0.377	0.334797	4
6139.71	0.410961	0.337629	4
6146.51	0.444938	0.340733	4
6153.3	0.478893	0.344803	4
6160.09	0.512849	0.348244	4
6166.89	0.546843	0.352039	4
6173.68	0.58082	0.355257	4
6180.48	0.614775	0.357367	4
6187.27	0.648734	0.358143	4
6194.06	0.682717	0.35945	4
6200.86	0.716665	0.359143	4
6207.65	0.750661	0.359511	4
6214.45	0.784616	0.359816	4
6221.24	0.818565	0.35979	4
6228.03	0.852549	0.361109	4
6234.83	0.88651	0.363915	4
6241.62	0.920475	0.365615	4
6248.42	0.95444	0.368514	4
6255.21	0.988405	0.372002	4
6262	1.02236	0.375514	4
6268.8	1.05634	0.379219	4
6275.59	1.09032	0.383417	4
6282.39	1.12427	0.387214	4
6289.18	1.15827	0.390998	4
6295.98	1.19223	0.394541	4
6302.77	1.22618	0.397678	4
6309.56	1.26016	0.401607	4
6316.36	1.29411	0.40364	4
6323.15	1.32808	0.406661	4
6329.95	1.36207	0.410016	4
6336.74	1.39604	0.41231	4
6343.53	1.43	0.415092	4
6350.33	1.46396	0.419335	4
6357.12	1.49794	0.422714	4
6363.92	1.53189	0.425606	4
6370.71	1.56585	0.430214	4
6377.5	1.59983	0.434707	4
6384.3	1.6338	0.439423	4
6391.09	1.66777	0.443933	4
6397.89	1.70173	0.449813	4
6404.68	1.7357	0.454514	4
6411.47	1.76966	0.460903	4
6418.27	1.80365	0.466992	4
6425.06	1.83759	0.471806	4
6431.86	1.87158	0.478602	4
6438.65	1.90553	0.48373	4
6445.44	1.93951	0.489684	4
6452.24	1.97348	0.495871	4
6459.03	2.00744	0.500041	4
6465.83	2.0414	0.505934	4
6472.62	2.07537	0.510402	4
6479.42	2.10935	0.514102	4
6486.21	2.1433	0.518466	4
6493	2.17729	0.522385	4
6499.8	2.21125	0.526116	4
6506.59	2.24521	0.52944	4
6513.39	2.27918	0.532241	4
6520.18	2.31315	0.53547	4
6526.97	2.34711	0.538651	4
6533.77	2.38107	0.54214	4
6540.56	2.41504	0.546226	4
6547.36	2.44902	0.551009	4
6554.15	2.48298	0.556528	4
6560.94	2.51694	0.561245	4
6567.74	2.5509	0.569082	4
6574.53	2.58487	0.575749	4
6581.33	2.61882	0.585466	4
6588.12	2.6528	0.594926	4
6594.37	2.68403	0.605321	5
6600.58	2.68509	-0.19236	5
6607.37	2.65111	-0.280046	5
6614.17	2.61715	-0.310503	5
6620.96	2.58317	-0.326457	5
6627.76	2.5492	-0.334153	5
6634.55	2.51525	-0.337507	5
6641.34	2.48129	-0.340211	5
6648.14	2.44732	-0.34218	5
6654.93	2.41333	-0.343868	5
6661.73	2.37937	-0.344507	5
6668.52	2.34538	-0.345669	5
6675.31	2.31144	-0.348273	5
6682.11	2.27748	-0.351588	5
6688.9	2.2435	-0.354049	5
6695.7	2.20953	-0.356704	5
6702.49	2.17556	-0.36045	5
6709.29	2.14162	-0.363558	5
6716.08	2.10763	-0.367333	5
6722.87	2.07365	-0.37122	5
6729.67	2.03969	-0.375065	5
6736.46	2.00574	-0.378601	5
6743.26	1.97176	-0.382845	5
6750.05	1.9378	-0.386279	5
6756.84	1.90383	-0.390491	5
6763.64	1.86986	-0.39423	5
6770.43	1.83589	-0.397271	5
6777.23	1.80191	-0.401461	5
6784.02	1.76794	-0.406588	5
6790.81	1.73398	-0.409753	5
6797.61	1.70002	-0.413733	5
6804.4	1.66604	-0.418346	5
6811.2	1.63206	-0.42172	5
6817.99	1.59809	-0.425973	5
6824.78	1.56413	-0.42944	5
6831.58	1.53019	-0.432667	5
6838.37	1.4962	-0.436491	5
6845.17	1.46225	-0.438361	5
6851.96	1.42827	-0.439571	5
6858.75	1.39432	-0.440576	5
6865.55	1.36034	-0.441553	5
6872.34	1.32637	-0.440057	5
6879.14	1.2924	-0.440147	5
6885.93	1.25846	-0.437889	5
6892.73	1.22446	-0.435165	5
6899.52	1.19051	-0.434361	5
6906.31	1.15654	-0.431568	5
6913.11	1.12259	-0.429506	5
6919.9	1.0886	-0.428635	5
6926.7	1.05464	-0.4268	5
6933.49	1.02066	-0.425837	5
6940.28	0.9867	-0.425579	5
6947.08	0.952753	-0.425775	5
6953.87	0.918768	-0.426714	5
6960.67	0.884799	-0.42805	5
6967.46	0.850843	-0.429763	5
6974.25	0.81685	-0.432697	5
6981.05	0.782879	-0.435486	5
6987.84	0.748934	-0.437439	5
6994.64	0.714962	-0.439872	5
7001.43	0.680985	-0.442827	5
7008.22	0.647027	-0.444527	5
7015.02	0.613042	-0.446854	5
7021.81	0.579111	-0.448493	5
7028.61	0.54512	-0.450528	5
7035.4	0.511154	-0.453071	5
7042.19	0.477224	-0.456288	5
7048.99	0.443244	-0.460541	5
7055.78	0.409266	-0.466649	5
7062.58	0.375296	-0.47376	5
7069.37	0.341337	-0.4808	5
7076.17	0.307356	-0.491199	5
7082.96	0.273395	-0.500889	5
7089.75	0.239435	-0.511341	5
7096.55	0.205444	-0.52394	5
7103.34	0.171509	-0.537229	5
7110.14	0.137554	-0.551939	5
7116.93	0.103598	-0.566961	5
7123.72	0.0696031	-0.584706	5
7130.52	0.0356699	-0.602935	5
7137.31	0.00168812	-0.624458	5
7143.38	0.0293678	0.188325	5
7150.17	0.0633292	0.257304	5
7156.97	0.0972901	0.289937	5
7163.76	0.131264	0.305931	5
7170.55	0.165252	0.316242	5
7177.35	0.199199	0.322427	5
7184.14	0.23318	0.326117	5
7190.94	0.267144	0.328401	5
7197.73	0.301096	0.331226	5
7204.52	0.335052	0.332587	5
7211.32	0.369029	0.335141	5
7218.11	0.402993	0.338128	5
7224.91	0.436949	0.341364	5
7231.7	0.470905	0.345446	5
7238.49	0.504879	0.348522	5
7245.29	0.538861	0.351651	5
7252.08	0.572829	0.355037	5
7258.88	0.606768	0.357232	5
7265.67	0.640767	0.35868	5
7272.46	0.674699	0.359221	5
7279.26	0.708666	0.359386	5
7286.05	0.742643	0.359371	5
7292.85	0.776627	0.359828	5
7299.64	0.810585	0.360449	5
7306.44	0.844556	0.361682	5
7313.23	0.878524	0.363393	5
7320.02	0.912474	0.365519	5
7326.82	0.946427	0.368441	5
7333.61	0.980401	0.37167	5
7340.41	1.01437	0.3755	5
7347.2	1.04835	0.379666	5
7353.99	1.08233	0.38322	5
7360.79	1.11628	0.387424	5
7367.58	1.15024	0.390555	5
7374.38	1.18423	0.394536	5
7381.17	1.2182	0.398277	5
7387.96	1.25215	0.400346	5
7394.76	1.28612	0.403511	5
7401.55	1.32008	0.407054	5
7408.35	1.35408	0.409075	5
7415.14	1.38803	0.412383	5
7421.93	1.42201	0.416082	5
7428.73	1.45598	0.418742	5
7435.52	1.48993	0.422783	5
7442.32	1.52388	0.426258	5
7449.11	1.55788	0.43005	5
7455.9	1.59185	0.43562	5
7462.7	1.62579	0.440389	5
7469.49	1.65976	0.444507	5
7476.29	1.69374	0.451092	5
7483.08	1.72771	0.456407	5
7489.88	1.76166	0.462028	5
7496.67	1.79563	0.46792	5
7503.46	1.82962	0.473366	5
7510.26	1.86359	0.479182	5
7517.05	1.89753	0.485506	5
7523.85	1.9315	0.490846	5
7530.64	1.96547	0.496004	5
7537.43	1.99945	0.501577	5
7544.23	2.03341	0.505832	5
7551.02	2.06738	0.511673	5
7557.82	2.10135	0.5161	5
7564.61	2.13532	0.519425	5
7571.4	2.16928	0.524289	5
7578.2	2.20325	0.526959	5
7584.99	2.23722	0.530313	5
7591.79	2.2712	0.533998	5
7598.58	2.30515	0.537652	5
7605.37	2.33912	0.540341	5
7612.17	2.3731	0.544467	5
7618.96	2.40707	0.548734	5
7625.76	2.44102	0.551988	5
7632.55	2.47501	0.558191	5
7639.34	2.50896	0.563436	5
7646.14	2.54292	0.57047	5
7652.93	2.5769	0.577737	5
7659.73	2.61087	0.58639	5
7666.52	2.64484	0.596463	5
7673.32	2.67881	0.609036	5
7678.98	2.69309	-0.123256	6
7685.77	2.65911	-0.270437	6
7692.57	2.62515	-0.308491	6
7699.36	2.59118	-0.325972	6
7706.16	2.55719	-0.335549	6
7712.95	2.52324	-0.340578	6
7719.75	2.48928	-0.342984	6
7726.54	2.45531	-0.345345	6
7733.33	2.42134	-0.346561	6
7740.13	2.38739	-0.346406	6
7746.92	2.35338	-0.349171	6
7753.72	2.31945	-0.35044	6
7760.51	2.28548	-0.35231	6
7767.3	2.2515	-0.35506	6
7774.1	2.21754	-0.358086	6
7780.89	2.18357	-0.361071	6
7787.69	2.14959	-0.365024	6
7794.48	2.11563	-0.368413	6
7801.27	2.08166	-0.372155	6
7808.07	2.0477	-0.37561	6
7814.86	2.01374	-0.378617	6
7821.66	1.97977	-0.383153	6
7828.45	1.94579	-0.386118	6
7835.24	1.91183	-0.389968	6
7842.04	1.87783	-0.394096	6
7848.83	1.84389	-0.398074	6
7855.63	1.80992	-0.401342	6
7862.42	1.77596	-0.405618	6
7869.21	1.74198	-0.409558	6
7876.01	1.70803	-0.413428	6
7882.8	1.67405	-0.418396	6
7889.6	1.64006	-0.421661	6
7896.39	1.60611	-0.425169	6
7903.19	1.57215	-0.42908	6
7909.98	1.53817	-0.432906	6
7916.77	1.50423	-0.434469	6
7923.57	1.47025	-0.438122	6
7930.36	1.43631	-0.440104	6
7937.16	1.40232	-0.439991	6
7943.95	1.36834	-0.441792	6
7950.74	1.3344	-0.442074	6
7957.54	1.30042	-0.440481	6
7964.33	1.26646	-0.439365	6
7971.13	1.23247	-0.437309	6
7977.92	1.19851	-0.434559	6
7984.71	1.16454	-0.433028	6
7991.51	1.13054	-0.431127	6
7998.3	1.09658	-0.428953	6
8005.1	1.06263	-0.427468	6
8011.89	1.02866	-0.426679	6
8018.68	0.994676	-0.426334	6
8025.48	0.960724	-0.425606	6
8032.27	0.926752	-0.426356	6
8039.07	0.892807	-0.427566	6
8045.86	0.858835	-0.429178	6
8052.65	0.824882	-0.431144	6
8059.45	0.790905	-0.433999	6
8066.24	0.756943	-0.436149	6
8073.04	0.722953	-0.438904	6
8079.83	0.689003	-0.441531	6
8086.63	0.655041	-0.443776	6
8093.42	0.621062	-0.445859	6
8100.21	0.587079	-0.447955	6
8107.01	0.553138	-0.45008	6
8113.8	0.519152	-0.452455	6
8120.6	0.48519	-0.455567	6
8127.39	0.451218	-0.459414	6
8134.18	0.417267	-0.464255	6
8140.98	0.38328	-0.470915	6
8147.77	0.349333	-0.478178	6
8154.57	0.315346	-0.486581	6
8161.36	0.281408	-0.496944	6
8168.15	0.247439	-0.506792	6
8174.95	0.213483	-0.519911	6
8181.74	0.179501	-0.532059	6
8188.54	0.145555	-0.545128	6
8195.33	0.111566	-0.561874	6
8202.12	0.077595	-0.577827	6
8208.92	0.0436283	-0.594761	6
8215.71	0.00968806	-0.615835	6
8221.78	0.0213725	0.160878	6
8228.57	0.0553497	0.24925	6
8235.37	0.0892936	0.284938	6
8242.16	0.123285	0.304527	6
8248.95	0.15723	0.315096	6
8255.75	0.191187	0.322185	6
8262.54	0.225189	0.32603	6
8269.34	0.259133	0.328619	6
8276.13	0.293084	0.331255	6
8282.92	0.327072	0.33293	6
8289.72	0.361022	0.33536	6
8296.51	0.394984	0.337869	6
8303.31	0.428972	0.341124	6
8310.1	0.462922	0.343987	6
8316.89	0.496904	0.347579	6
8323.69	0.530863	0.351626	6
8330.48	0.564809	0.354702	6
8337.28	0.598764	0.356532	6
8344.07	0.632751	0.358981	6
8350.87	0.66671	0.359517	6
8357.66	0.700651	0.358633	6
8364.45	0.734658	0.359491	6
8371.25	0.768616	0.359767	6
8378.04	0.802594	0.359943	6
8384.84	0.836565	0.36172	6
8391.63	0.870515	0.362862	6
8398.42	0.904488	0.365241	6
8405.22	0.938464	0.368329	6
8412.01	0.972408	0.371379	6
8418.81	1.00638	0.374668	6
8425.6	1.04036	0.379183	6
8432.39	1.07432	0.38238	6
8439.19	1.10829	0.386571	6
8445.98	1.14227	0.390423	6
8452.78	1.17622	0.393797	6
8459.57	1.21017	0.397121	6
8466.36	1.24415	0.400902	6
8473.16	1.27812	0.403823	6
8479.95	1.31208	0.406801	6
8486.75	1.34606	0.409473	6
8493.54	1.38004	0.412743	6
8500.34	1.41399	0.415499	6
8507.13	1.44795	0.419647	6
8513.92	1.48192	0.422847	6
8520.72	1.5159	0.426686	6
8527.51	1.54986	0.430413	6
8534.31	1.58382	0.435699	6
8541.1	1.6178	0.440096	6
8547.89	1.65175	0.446099	6
8554.69	1.68572	0.450998	6
8561.48	1.71968	0.456705	6
8568.28	1.75367	0.462768	6
8575.07	1.78764	0.467724	6
8581.86	1.8216	0.473854	6
8588.66	1.85558	0.480238	6
8595.45	1.88954	0.485952	6
8602.25	1.92353	0.492553	6
8609.04	1.95746	0.496799	6
8615.83	1.99145	0.501688	6
8622.63	2.02541	0.507558	6
8629.42	2.05939	0.511915	6
8636.22	2.09335	0.516442	6
8643.01	2.12732	0.520315	6
8649.8	2.16127	0.524149	6
8656.6	2.19526	0.527831	6
8663.39	2.22921	0.531028	6
8670.19	2.26317	0.534681	6
8676.98	2.29717	0.53758	6
8683.78	2.33113	0.541831	6
8690.57	2.3651	0.545622	6
8697.36	2.39908	0.549275	6
8704.16	2.43303	0.553538	6
8710.95	2.46701	0.559055	6
8717.75	2.50095	0.564682	6
8724.54	2.53494	0.571804	6
8731.33	2.56891	0.579205	6
8738.13	2.60288	0.587634	6
8744.92	2.63685	0.59827	6
8751.72	2.67082	0.609021	6
8757.58	2.7001	0.619875	7
8764.18	2.66712	-0.256833	7
8770.97	2.63315	-0.303936	7
8777.76	2.59918	-0.325088	7
8784.56	2.56521	-0.336038	7
8791.35	2.53123	-0.342241	7
8798.15	2.49726	-0.345396	7
8804.94	2.46329	-0.346797	7
8811.73	2.42933	-0.347526	7
8818.53	2.39536	-0.348776	7
8825.32	2.3614	-0.351273	7
8832.12	2.32745	-0.351671	7
8838.91	2.29348	-0.353692	7
8845.7	2.25951	-0.356859	7
8852.5	2.22552	-0.358838	7
8859.29	2.19158	-0.361774	7
8866.09	2.15759	-0.365693	7
8872.88	2.12364	-0.368358	7
8879.67	2.08967	-0.371922	7
8886.47	2.0557	-0.376415	7
8893.26	2.02175	-0.380021	7
8900.06	1.98779	-0.382804	7
8906.85	1.9538	-0.387145	7
8913.64	1.91982	-0.390631	7
8920.44	1.88586	-0.393989	7
8927.23	1.8519	-0.398255	7
8934.03	1.81792	-0.401715	7
8940.82	1.78396	-0.405599	7
8947.62	1.75001	-0.408872	7
8954.41	1.71601	-0.412761	7
8961.2	1.68205	-0.417488	7
8968	1.64809	-0.421251	7
8974.79	1.61411	-0.425412	7
8981.59	1.58014	-0.428579	7
8988.38	1.54619	-0.432493	7
8995.17	1.51221	-0.43614	7
9001.97	1.47825	-0.437123	7
9008.76	1.44428	-0.439939	7
9015.56	1.41031	-0.441438	7
9022.35	1.37635	-0.441767	7
9029.14	1.34237	-0.442495	7
9035.94	1.30842	-0.441647	7
9042.73	1.27444	-0.439774	7
9049.53	1.24048	-0.438165	7
9056.32	1.20651	-0.436619	7
9063.11	1.17252	-0.433906	7
9069.91	1.13855	-0.432676	7
9076.7	1.10458	-0.430339	7
9083.5	1.07062	-0.428199	7
9090.29	1.03666	-0.427918	7
9097.08	1.0027	-0.426062	7
9103.88	0.968749	-0.425221	7
9110.67	0.934757	-0.427192	7
9117.47	0.900792	-0.427176	7
9124.26	0.866829	-0.428676	7
9131.06	0.832876	-0.430149	7
9137.85	0.798907	-0.4331	7
9144.64	0.764931	-0.43564	7
9151.44	0.730973	-0.438009	7
9158.23	0.697006	-0.440399	7
9165.03	0.663057	-0.442813	7
9171.82	0.629066	-0.445571	7
9178.61	0.595084	-0.446833	7
9185.41	0.561137	-0.448863	7
9192.2	0.527177	-0.451585	7
9199	0.493209	-0.453585	7
9205.79	0.459237	-0.457378	7
9212.58	0.425244	-0.463	7
9219.38	0.391291	-0.467671	7
9226.17	0.357313	-0.475492	7
9232.97	0.323359	-0.484118	7
9239.76	0.289388	-0.492447	7
9246.55	0.255424	-0.503755	7
9253.35	0.221489	-0.515168	7
9260.14	0.187508	-0.527596	7
9266.94	0.153521	-0.541206	7
9273.73	0.119555	-0.555105	7
9280.52	0.0856004	-0.57075	7
9287.32	0.0516129	-0.589017	7
9294.11	0.0176682	-0.608277	7
9300.18	0.0133804	0.115107	7
9306.97	0.0473318	0.236915	7
9313.77	0.0812926	0.280636	7
9320.56	0.115264	0.302363	7
9327.35	0.149263	0.314701	7
9334.15	0.18322	0.322409	7
9340.94	0.217195	0.326323	7
9347.74	0.25114	0.329125	7
9354.53	0.285101	0.331255	7
9361.32	0.319052	0.333558	7
9368.12	0.353007	0.334863	7
9374.91	0.386984	0.338173	7
9381.71	0.420969	0.34125	7
9388.5	0.454955	0.344226	7
9395.3	0.488898	0.347335	7
9402.09	0.522882	0.351192	7
9408.88	0.556845	0.354455	7
9415.68	0.59078	0.356351	7
9422.47	0.624785	0.358766	7
9429.27	0.658745	0.359153	7
9436.06	0.692696	0.359217	7
9442.85	0.726651	0.359354	7
9449.65	0.760649	0.359486	7
9456.44	0.7946	0.360175	7
9463.24	0.828583	0.361707	7
9470.03	0.862528	0.362543	7
9476.82	0.896506	0.364987	7
9483.62	0.930487	0.368234	7
9490.41	0.964457	0.371687	7
9497.21	0.998397	0.374463	7
9504	1.03235	0.378469	7
9510.79	1.06632	0.382748	7
9517.59	1.1003	0.386623	7
9524.38	1.13426	0.390345	7
9531.18	1.16825	0.394277	7
9537.97	1.20223	0.397507	7
9544.76	1.23618	0.400248	7
9551.56	1.27016	0.403643	7
9558.35	1.30413	0.40658	7
9565.15	1.33808	0.409523	7
9571.94	1.37205	0.412765	7
9578.74	1.40602	0.4155	7
9585.53	1.44	0.419224	7
9592.32	1.47395	0.422437	7
9599.12	1.50791	0.426382	7
9605.91	1.54187	0.431037	7
9612.71	1.57583	0.435962	7
9619.5	1.60981	0.440511	7
9626.29	1.64376	0.446035	7
9633.09	1.67776	0.451776	7
9639.88	1.71174	0.456761	7
9646.68	1.74572	0.462749	7
9653.47	1.77966	0.468051	7
9660.26	1.81361	0.474292	7
9667.06	1.84759	0.480088	7
9673.85	1.88155	0.486104	7
9680.65	1.91551	0.491453	7
9687.44	1.94948	0.497401	7
9694.23	1.98348	0.502955	7
9701.03	2.01745	0.506863	7
9707.82	2.0514	0.512369	7
9714.62	2.08536	0.516962	7
9721.41	2.11933	0.519859	7
9728.2	2.1533	0.524369	7
9735	2.18727	0.528239	7
9741.79	2.22124	0.531094	7
9748.59	2.2552	0.535296	7
9755.38	2.28916	0.53862	7
9762.18	2.32315	0.541785	7
9768.97	2.35711	0.54569	7
9775.76	2.39109	0.549502	7
9782.56	2.42505	0.553916	7
9789.35	2.45901	0.559882	7
9796.15	2.49299	0.565615	7
9802.94	2.52695	0.572256	7
9809.73	2.56089	0.580696	7
9816.53	2.59488	0.588237	7
9823.32	2.62885	0.598451	7
9830.12	2.66283	0.609362	7
9836.36	2.69404	0.620478	8
9842.58	2.67511	-0.237275	8
9849.37	2.64114	-0.296958	8
9856.16	2.60718	-0.322408	8
9862.96	2.57321	-0.33634	8
9869.75	2.53923	-0.342179	8
9876.55	2.50526	-0.346333	8
9883.34	2.47131	-0.348545	8
9890.13	2.43732	-0.349089	8
9896.93	2.40336	-0.350391	8
9903.72	2.3694	-0.351646	8
9910.52	2.33543	-0.353291	8
9917.31	2.30145	-0.354707	8
9924.1	2.2675	-0.356951	8
9930.9	2.23353	-0.359158	8
9937.69	2.19953	-0.363772	8
9944.49	2.16559	-0.365394	8
9951.28	2.1316	-0.369128	8
9958.08	2.09767	-0.37183	8
9964.87	2.0637	-0.375819	8
9971.66	2.02972	-0.379317	8
9978.46	1.99574	-0.383124	8
9985.25	1.96178	-0.386082	8
9992.05	1.9278	-0.390651	8
9998.84	1.89384	-0.394007	8
10005.6	1.85991	-0.396876	8
10012.4	1.82592	-0.400862	8
10019.2	1.79195	-0.404864	8
10026	1.75799	-0.408345	8
10032.8	1.724	-0.412893	8
10039.6	1.69004	-0.416864	8
10046.4	1.65608	-0.420203	8
10053.2	1.62211	-0.425009	8
10060	1.58815	-0.428218	8
10066.8	1.55419	-0.431768	8
10073.6	1.52021	-0.434735	8
10080.4	1.48625	-0.437691	8
10087.2	1.45228	-0.439969	8
10094	1.41831	-0.441457	8
10100.8	1.38435	-0.44291	8
10107.5	1.35037	-0.442216	8
10114.3	1.31642	-0.442508	8
10121.1	1.28245	-0.441493	8
10127.9	1.24848	-0.43967	8
10134.7	1.21451	-0.438179	8
10141.5	1.18056	-0.435793	8
10148.3	1.1466	-0.433034	8
10155.1	1.11261	-0.431508	8
10161.9	1.07866	-0.429642	8
10168.7	1.0447	-0.427562	8
10175.5	1.01071	-0.427367	8
10182.3	0.976744	-0.426503	8
10189.1	0.94278	-0.426684	8
10195.9	0.908799	-0.42734	8
10202.7	0.874844	-0.428056	8
10209.5	0.840868	-0.430621	8
10216.2	0.806913	-0.432134	8
10223	0.77294	-0.435311	8
10229.8	0.738976	-0.437034	8
10236.6	0.705017	-0.440077	8
10243.4	0.671051	-0.442144	8
10250.2	0.637081	-0.444814	8
10257	0.603108	-0.446572	8
10263.8	0.569139	-0.448198	8
10270.6	0.535202	-0.450176	8
10277.4	0.501212	-0.453626	8
10284.2	0.46725	-0.45679	8
10291	0.433284	-0.46107	8
10297.8	0.399316	-0.466856	8
10304.6	0.365345	-0.473269	8
10311.4	0.331383	-0.48093	8
10318.2	0.297421	-0.490139	8
10325	0.263468	-0.499775	8
10331.7	0.229489	-0.510423	8
10338.5	0.195519	-0.523499	8
10345.3	0.161555	-0.535872	8
10352.1	0.127583	-0.54991	8
10358.9	0.0936152	-0.565503	8
10365.7	0.0596458	-0.581894	8
10372.5	0.0257081	-0.601014	8
10378.6	0.00539028	-0.00164885	8
10385.4	0.0393404	0.22274	8
10392.2	0.0733245	0.272684	8
10399	0.107297	0.299595	8
10405.8	0.14126	0.312592	8
10412.5	0.175237	0.320737	8
10419.3	0.20919	0.326273	8
10426.1	0.243166	0.328858	8
10432.9	0.277115	0.330481	8
10439.7	0.311084	0.333271	8
10446.5	0.345045	0.334594	8
10453.3	0.379021	0.338592	8
10460.1	0.412977	0.341179	8
10466.9	0.446954	0.343591	8
10473.7	0.480905	0.347141	8
10480.5	0.514875	0.350878	8
10487.3	0.54884	0.354063	8
10494.1	0.582791	0.356445	8
10500.9	0.616774	0.358128	8
10507.7	0.650747	0.358628	8
10514.5	0.684693	0.359583	8
10521.3	0.71867	0.359538	8
10528	0.752652	0.359575	8
10534.8	0.786604	0.360147	8
10541.6	0.820559	0.361185	8
10548.4	0.854531	0.36207	8
10555.2	0.888519	0.364616	8
10562	0.922471	0.367697	8
10568.8	0.956446	0.3705	8
10575.6	0.990411	0.374854	8
10582.4	1.02438	0.378138	8
10589.2	1.05833	0.381466	8
10596	1.09231	0.385724	8
10602.8	1.12627	0.389516	8
10609.6	1.16025	0.392314	8
10616.4	1.19422	0.396179	8
10623.2	1.22818	0.399798	8
10630	1.26215	0.402923	8
10636.8	1.29611	0.406321	8
10643.5	1.33006	0.408512	8
10650.3	1.36405	0.412979	8
10657.1	1.39803	0.415292	8
10663.9	1.43199	0.418803	8
10670.7	1.46595	0.422734	8
10677.5	1.49991	0.426534	8
10684.3	1.53387	0.430314	8
10691.1	1.56784	0.435303	8
10697.9	1.60181	0.440487	8
10704.7	1.63579	0.44536	8
10711.5	1.66975	0.450551	8
10718.3	1.70372	0.456763	8
10725.1	1.73769	0.462283	8
10731.9	1.77166	0.469422	8
10738.7	1.80563	0.474773	8
10745.5	1.83958	0.479749	8
10752.3	1.87356	0.486496	8
10759	1.90751	0.491789	8
10765.8	1.9415	0.496461	8
10772.6	1.97546	0.501798	8
10779.4	2.00942	0.507643	8
10786.2	2.04337	0.511116	8
10793	2.07738	0.516507	8
10799.8	2.11131	0.520342	8
10806.6	2.14528	0.524725	8
10813.4	2.17927	0.528476	8
10820.2	2.21324	0.532429	8
10827	2.24719	0.535369	8
10833.8	2.28117	0.538977	8
10840.6	2.31515	0.543095	8
10847.4	2.34911	0.546262	8
10854.2	2.38306	0.550657	8
10861	2.41704	0.554107	8
10867.8	2.45101	0.560267	8
10874.5	2.48497	0.566347	8
10881.3	2.51894	0.572972	8
10888.1	2.55289	0.579574	8
10894.9	2.58688	0.588556	8
10901.7	2.62084	0.598889	8
10908.5	2.65481	0.609867	8
10914.8	2.68604	0.620403	9
10921	2.68307	-0.207634	9
10927.8	2.64911	-0.289175	9
10934.6	2.61514	-0.319809	9
10941.4	2.58116	-0.335312	9
10948.2	2.5472	-0.342773	9
10954.9	2.51323	-0.347607	9
10961.7	2.47926	-0.349737	9
10968.5	2.4453	-0.352116	9
10975.3	2.41135	-0.352098	9
10982.1	2.37737	-0.353094	9
10988.9	2.34341	-0.354371	9
10995.7	2.30945	-0.35622	9
11002.5	2.27549	-0.357699	9
11009.3	2.2415	-0.360814	9
11016.1	2.20754	-0.362995	9
11022.9	2.17359	-0.36596	9
11029.7	2.13962	-0.369278	9
11036.5	2.10562	-0.373033	9
11043.3	2.07165	-0.376156	9
11050.1	2.03771	-0.37938	9
11056.9	2.00373	-0.382941	9
11063.7	1.96976	-0.386854	9
11070.4	1.93579	-0.39041	9
11077.2	1.90184	-0.39332	9
11084	1.86788	-0.397995	9
11090.8	1.83389	-0.40037	9
11097.6	1.79993	-0.403636	9
11104.4	1.76596	-0.408274	9
11111.2	1.732	-0.41164	9
11118	1.69802	-0.416058	9
11124.8	1.66404	-0.420176	9
11131.6	1.6301	-0.423612	9
11138.4	1.59614	-0.426987	9
11145.2	1.56215	-0.431533	9
11152	1.52819	-0.434784	9
11158.8	1.49423	-0.437524	9
11165.6	1.46026	-0.439461	9
11172.4	1.42631	-0.441655	9
11179.2	1.39235	-0.442802	9
11185.9	1.35837	-0.443061	9
11192.7	1.32441	-0.442757	9
11199.5	1.29042	-0.442254	9
11206.3	1.25645	-0.440801	9
11213.1	1.22248	-0.438885	9
11219.9	1.18854	-0.436633	9
11226.7	1.15456	-0.434812	9
11233.5	1.1206	-0.432057	9
11240.3	1.08663	-0.430635	9
11247.1	1.05265	-0.428777	9
11253.9	1.01868	-0.427198	9
11260.7	0.984707	-0.427094	9
11267.5	0.950762	-0.426615	9
11274.3	0.916802	-0.4264	9
11281.1	0.882822	-0.427921	9
11287.9	0.848883	-0.42929	9
11294.7	0.814892	-0.431151	9
11301.4	0.780924	-0.433663	9
11308.2	0.74696	-0.436391	9
11315	0.712977	-0.439413	9
11321.8	0.67902	-0.441578	9
11328.6	0.645058	-0.444296	9
11335.4	0.61109	-0.445843	9
11342.2	0.577146	-0.447786	9
11349	0.543164	-0.449545	9
11355.8	0.509204	-0.452384	9
11362.6	0.475244	-0.455302	9
11369.4	0.441255	-0.459297	9
11376.2	0.407273	-0.464559	9
11383	0.373331	-0.471058	9
11389.8	0.339397	-0.478465	9
11396.6	0.305413	-0.487282	9
11403.4	0.271436	-0.497302	9
11410.1	0.237481	-0.50734	9
11416.9	0.203509	-0.519179	9
11423.7	0.16954	-0.531499	9
11430.5	0.135576	-0.545216	9
11437.3	0.101601	-0.561032	9
11444.1	0.0676481	-0.57725	9
11450.9	0.0336925	-0.594289	9
11457.5	0.000548832	-0.614447	9
11463.8	0.0313839	0.203687	9
11470.6	0.0653505	0.266436	9
11477.4	0.0992995	0.294844	9
11484.2	0.133274	0.31097	9
11490.9	0.167262	0.320793	9
11497.7	0.201182	0.324928	9
11504.5	0.235163	0.329179	9
11511.3	0.269143	0.330919	9
11518.1	0.30312	0.332776	9
11524.9	0.337068	0.335608	9
11531.7	0.371027	0.337291	9
11538.5	0.405005	0.340242	9
11545.3	0.438984	0.343671	9
11552.1	0.472941	0.346646	9
11558.9	0.506903	0.350672	9
11565.7	0.540895	0.353694	9
11572.5	0.574855	0.356082	9
11579.3	0.608796	0.357483	9
11586.1	0.642769	0.359114	9
11592.9	0.676743	0.359325	9
11599.7	0.710711	0.358755	9
11606.4	0.744687	0.359608	9
11613.2	0.778641	0.360122	9
11620	0.812615	0.360658	9
11626.8	0.846591	0.362405	9
11633.6	0.880541	0.364064	9
11640.4	0.914499	0.367471	9
11647.2	0.948464	0.370645	9
11654	0.982413	0.373441	9
11660.8	1.01638	0.37796	9
11667.6	1.05035	0.381366	9
11674.4	1.08431	0.38505	9
11681.2	1.11831	0.389111	9
11688	1.15225	0.392036	9
11694.8	1.18624	0.395609	9
11701.6	1.2202	0.399383	9
11708.4	1.25417	0.40258	9
11715.2	1.28812	0.405434	9
11721.9	1.32209	0.408457	9
11728.7	1.35607	0.412166	9
11735.5	1.39003	0.414796	9
11742.3	1.42401	0.418547	9
11749.1	1.45797	0.421691	9
11755.9	1.49195	0.425861	9
11762.7	1.52591	0.430234	9
11769.5	1.55988	0.435073	9
11776.3	1.59384	0.439621	9
11783.1	1.62783	0.44579	9
11789.9	1.66177	0.450644	9
11796.7	1.69575	0.456629	9
11803.5	1.7297	0.461872	9
11810.3	1.76365	0.467398	9
11817.1	1.79764	0.473557	9
11823.9	1.8316	0.479996	9
11830.7	1.86559	0.486449	9
11837.4	1.89954	0.491776	9
11844.2	1.93352	0.49733	9
11851	1.9675	0.502098	9
11857.8	2.00146	0.507343	9
11864.6	2.03542	0.511772	9
11871.4	2.06939	0.515514	9
11878.2	2.10337	0.521076	9
11885	2.13734	0.524688	9
11891.8	2.17128	0.527621	9
11898.6	2.20526	0.532512	9
11905.4	2.2392	0.535329	9
11912.2	2.27318	0.53892	9
11919	2.30715	0.542199	9
11925.8	2.3411	0.546024	9
11932.6	2.37509	0.549574	9
11939.4	2.40906	0.555247	9
11946.2	2.443	0.559824	9
11952.9	2.477	0.565415	9
11959.7	2.51095	0.572856	9
11966.5	2.54491	0.579239	9
11973.3	2.5789	0.588117	9
11980.1	2.61286	0.598331	9
11986.9	2.64684	0.608466	9
11993.7	2.6808	0.620706	9
11994.1	2.68297	0.62341	9